{
    "resourceType": "Bundle",
    "type": "searchset",
    "total": 12,
    "link": [
        {
            "relation": "self",
            "url": "https://apporchard.epic.com/interconnect-aocurprd-oauth/api/FHIR/R4/MedicationRequest?_format=json&patient=e.suZwt8EI2qIX6og-yaeMQ3"
        }
    ],
    "entry": [
        {
            "link": [
                {
                    "relation": "self",
                    "url": "https://apporchard.epic.com/interconnect-aocurprd-oauth/api/FHIR/R4/MedicationRequest/e-PFxkTZH.AaS.aimg6N3lQ3"
                }
            ],
            "fullUrl": "https://apporchard.epic.com/interconnect-aocurprd-oauth/api/FHIR/R4/MedicationRequest/e-PFxkTZH.AaS.aimg6N3lQ3",
            "resource": {
                "resourceType": "MedicationRequest",
                "id": "e-PFxkTZH.AaS.aimg6N3lQ3",
                "identifier": [
                    {
                        "use": "usual",
                        "system": "urn:oid:1.2.840.114350.1.13.0.1.7.2.798268",
                        "value": "956420"
                    }
                ],
                "status": "stopped",
                "intent": "plan",
                "category": [
                    {
                        "coding": [
                            {
                                "system": "http://terminology.hl7.org/CodeSystem/medicationrequest-category",
                                "code": "community",
                                "display": "Community"
                            }
                        ],
                        "text": "Community"
                    }
                ],
                "reportedBoolean": true,
                "medicationReference": {
                    "reference": "Medication/eZqObtEC4Ysw2NAIIUEbtqxkiaAg1UuwQjg2B09ndcnVcXGnop.Rawlr1KZUYia4p3",
                    "display": "furosemide (LASIX) tablet"
                },
                "subject": {
                    "reference": "Patient/e.suZwt8EI2qIX6og-yaeMQ3",
                    "display": "Heart, Herman E"
                },
                "encounter": {
                    "reference": "Encounter/e2HWI09ot82IzTH3rY.IhdQ3",
                    "display": "Office Visit"
                },
                "authoredOn": "2013-05-16T14:49:58Z",
                "requester": {
                    "extension": [
                        {
                            "valueCode": "unknown",
                            "url": "http://hl7.org/fhir/StructureDefinition/data-absent-reason"
                        }
                    ]
                },
                "recorder": {
                    "reference": "Practitioner/erqn5oyiA9.LpVQkQ2Ulmgg3",
                    "type": "Practitioner",
                    "display": "Nurse Family Medicine, RN"
                },
                "courseOfTherapyType": {
                    "coding": [
                        {
                            "system": "http://terminology.hl7.org/CodeSystem/medicationrequest-course-of-therapy",
                            "code": "acute",
                            "display": "Short course (acute) therapy"
                        }
                    ],
                    "text": "Short course (acute) therapy"
                },
                "dosageInstruction": [
                    {
                        "text": "Take 20 mg by mouth 3 (three) times a day., Starting 5/16/2012, Until Thu 5/16/13, Historical Med",
                        "patientInstruction": "Take 20 mg by mouth 3 (three) times a day.",
                        "timing": {
                            "repeat": {
                                "boundsPeriod": {
                                    "start": "2012-05-16",
                                    "end": "2013-05-16"
                                },
                                "timeOfDay": [
                                    "09:00:00",
                                    "16:00:00",
                                    "21:00:00"
                                ]
                            },
                            "code": {
                                "text": "0900, 1600, 2100"
                            }
                        },
                        "asNeededBoolean": false,
                        "route": {
                            "coding": [
                                {
                                    "system": "http://snomed.info/sct",
                                    "code": "260548002",
                                    "display": "Oral (qualifier value)"
                                },
                                {
                                    "system": "urn:oid:1.2.840.114350.1.13.0.1.7.4.798268.7025",
                                    "code": "15",
                                    "display": "Oral"
                                }
                            ],
                            "text": "Oral"
                        },
                        "doseAndRate": [
                            {
                                "type": {
                                    "coding": [
                                        {
                                            "system": "http://epic.com/CodeSystem/dose-rate-type",
                                            "code": "ordered",
                                            "display": "ordered"
                                        }
                                    ],
                                    "text": "ordered"
                                },
                                "doseQuantity": {
                                    "value": 20,
                                    "unit": "mg",
                                    "system": "http://unitsofmeasure.org",
                                    "code": "mg"
                                }
                            }
                        ]
                    }
                ]
            },
            "search": {
                "mode": "match"
            }
        },
        {
            "link": [
                {
                    "relation": "self",
                    "url": "https://apporchard.epic.com/interconnect-aocurprd-oauth/api/FHIR/R4/MedicationRequest/e-fGPkNJS7BA8k2GtGlaEAw3"
                }
            ],
            "fullUrl": "https://apporchard.epic.com/interconnect-aocurprd-oauth/api/FHIR/R4/MedicationRequest/e-fGPkNJS7BA8k2GtGlaEAw3",
            "resource": {
                "resourceType": "MedicationRequest",
                "id": "e-fGPkNJS7BA8k2GtGlaEAw3",
                "identifier": [
                    {
                        "use": "usual",
                        "system": "urn:oid:1.2.840.114350.1.13.0.1.7.2.798268",
                        "value": "956421"
                    }
                ],
                "status": "stopped",
                "intent": "plan",
                "category": [
                    {
                        "coding": [
                            {
                                "system": "http://terminology.hl7.org/CodeSystem/medicationrequest-category",
                                "code": "community",
                                "display": "Community"
                            }
                        ],
                        "text": "Community"
                    }
                ],
                "reportedReference": {
                    "display": "Self"
                },
                "medicationReference": {
                    "reference": "Medication/enKmjUPhmNIu0.qGUhgWft4l59LrBh46b-DrzZsRGD50FlvUIib5RNPI4b.dOiI4T3",
                    "display": "propranolol (INDERAL) tablet"
                },
                "subject": {
                    "reference": "Patient/e.suZwt8EI2qIX6og-yaeMQ3",
                    "display": "Heart, Herman E"
                },
                "encounter": {
                    "reference": "Encounter/e2HWI09ot82IzTH3rY.IhdQ3",
                    "display": "Office Visit"
                },
                "authoredOn": "2013-05-16T14:49:59Z",
                "requester": {
                    "extension": [
                        {
                            "valueCode": "unknown",
                            "url": "http://hl7.org/fhir/StructureDefinition/data-absent-reason"
                        }
                    ]
                },
                "recorder": {
                    "reference": "Practitioner/erqn5oyiA9.LpVQkQ2Ulmgg3",
                    "type": "Practitioner",
                    "display": "Nurse Family Medicine, RN"
                },
                "courseOfTherapyType": {
                    "coding": [
                        {
                            "system": "http://terminology.hl7.org/CodeSystem/medicationrequest-course-of-therapy",
                            "code": "acute",
                            "display": "Short course (acute) therapy"
                        }
                    ],
                    "text": "Short course (acute) therapy"
                },
                "dosageInstruction": [
                    {
                        "text": "Take 20 mg by mouth 3 (three) times a day., Starting 11/16/2011, Until Thu 5/16/13, Historical Med",
                        "patientInstruction": "Take 20 mg by mouth 3 (three) times a day.",
                        "timing": {
                            "repeat": {
                                "boundsPeriod": {
                                    "start": "2011-11-16",
                                    "end": "2013-05-16"
                                },
                                "timeOfDay": [
                                    "09:00:00",
                                    "16:00:00",
                                    "21:00:00"
                                ]
                            },
                            "code": {
                                "text": "0900, 1600, 2100"
                            }
                        },
                        "asNeededBoolean": false,
                        "route": {
                            "coding": [
                                {
                                    "system": "http://snomed.info/sct",
                                    "code": "260548002",
                                    "display": "Oral (qualifier value)"
                                },
                                {
                                    "system": "urn:oid:1.2.840.114350.1.13.0.1.7.4.798268.7025",
                                    "code": "15",
                                    "display": "Oral"
                                }
                            ],
                            "text": "Oral"
                        },
                        "doseAndRate": [
                            {
                                "type": {
                                    "coding": [
                                        {
                                            "system": "http://epic.com/CodeSystem/dose-rate-type",
                                            "code": "ordered",
                                            "display": "ordered"
                                        }
                                    ],
                                    "text": "ordered"
                                },
                                "doseQuantity": {
                                    "value": 20,
                                    "unit": "mg",
                                    "system": "http://unitsofmeasure.org",
                                    "code": "mg"
                                }
                            }
                        ]
                    }
                ]
            },
            "search": {
                "mode": "match"
            }
        },
        {
            "link": [
                {
                    "relation": "self",
                    "url": "https://apporchard.epic.com/interconnect-aocurprd-oauth/api/FHIR/R4/MedicationRequest/e0gMmHjC5-11E79Vd4YhsBQ3"
                }
            ],
            "fullUrl": "https://apporchard.epic.com/interconnect-aocurprd-oauth/api/FHIR/R4/MedicationRequest/e0gMmHjC5-11E79Vd4YhsBQ3",
            "resource": {
                "resourceType": "MedicationRequest",
                "id": "e0gMmHjC5-11E79Vd4YhsBQ3",
                "identifier": [
                    {
                        "use": "usual",
                        "system": "urn:oid:1.2.840.114350.1.13.0.1.7.2.798268",
                        "value": "963789"
                    }
                ],
                "status": "stopped",
                "intent": "plan",
                "category": [
                    {
                        "coding": [
                            {
                                "system": "http://terminology.hl7.org/CodeSystem/medicationrequest-category",
                                "code": "community",
                                "display": "Community"
                            }
                        ],
                        "text": "Community"
                    }
                ],
                "reportedReference": {
                    "display": "Self"
                },
                "medicationReference": {
                    "reference": "Medication/enKmjUPhmNIu0.qGUhgWft85jzzsPb6qf0Ge.qtIGV8FPxGrfPstcny-YdiEmUWBf3",
                    "display": "propranolol (INDERAL) tablet"
                },
                "subject": {
                    "reference": "Patient/e.suZwt8EI2qIX6og-yaeMQ3",
                    "display": "Heart, Herman E"
                },
                "encounter": {
                    "reference": "Encounter/e0F1Ezbl0lNaHHLDlnA1hcw3",
                    "display": "Office Visit"
                },
                "authoredOn": "2013-03-06T15:49:59Z",
                "requester": {
                    "extension": [
                        {
                            "valueCode": "unknown",
                            "url": "http://hl7.org/fhir/StructureDefinition/data-absent-reason"
                        }
                    ]
                },
                "recorder": {
                    "reference": "Practitioner/erqn5oyiA9.LpVQkQ2Ulmgg3",
                    "type": "Practitioner",
                    "display": "Nurse Family Medicine, RN"
                },
                "courseOfTherapyType": {
                    "coding": [
                        {
                            "system": "http://terminology.hl7.org/CodeSystem/medicationrequest-course-of-therapy",
                            "code": "acute",
                            "display": "Short course (acute) therapy"
                        }
                    ],
                    "text": "Short course (acute) therapy"
                },
                "dosageInstruction": [
                    {
                        "text": "Take 20 mg by mouth 3 (three) times a day., Starting 9/6/2011, Until Wed 3/6/13, Historical Med",
                        "patientInstruction": "Take 20 mg by mouth 3 (three) times a day.",
                        "timing": {
                            "repeat": {
                                "boundsPeriod": {
                                    "start": "2011-09-06",
                                    "end": "2013-03-06"
                                },
                                "timeOfDay": [
                                    "09:00:00",
                                    "16:00:00",
                                    "21:00:00"
                                ]
                            },
                            "code": {
                                "text": "0900, 1600, 2100"
                            }
                        },
                        "asNeededBoolean": false,
                        "route": {
                            "coding": [
                                {
                                    "system": "http://snomed.info/sct",
                                    "code": "260548002",
                                    "display": "Oral (qualifier value)"
                                },
                                {
                                    "system": "urn:oid:1.2.840.114350.1.13.0.1.7.4.798268.7025",
                                    "code": "15",
                                    "display": "Oral"
                                }
                            ],
                            "text": "Oral"
                        },
                        "doseAndRate": [
                            {
                                "type": {
                                    "coding": [
                                        {
                                            "system": "http://epic.com/CodeSystem/dose-rate-type",
                                            "code": "ordered",
                                            "display": "ordered"
                                        }
                                    ],
                                    "text": "ordered"
                                },
                                "doseQuantity": {
                                    "value": 20,
                                    "unit": "mg",
                                    "system": "http://unitsofmeasure.org",
                                    "code": "mg"
                                }
                            }
                        ]
                    }
                ]
            },
            "search": {
                "mode": "match"
            }
        },
        {
            "link": [
                {
                    "relation": "self",
                    "url": "https://apporchard.epic.com/interconnect-aocurprd-oauth/api/FHIR/R4/MedicationRequest/e2OHX.VQF1vvmwsNLuhL7Mg3"
                }
            ],
            "fullUrl": "https://apporchard.epic.com/interconnect-aocurprd-oauth/api/FHIR/R4/MedicationRequest/e2OHX.VQF1vvmwsNLuhL7Mg3",
            "resource": {
                "resourceType": "MedicationRequest",
                "id": "e2OHX.VQF1vvmwsNLuhL7Mg3",
                "identifier": [
                    {
                        "use": "usual",
                        "system": "urn:oid:1.2.840.114350.1.13.0.1.7.2.798268",
                        "value": "963786"
                    }
                ],
                "status": "active",
                "intent": "order",
                "category": [
                    {
                        "coding": [
                            {
                                "system": "http://terminology.hl7.org/CodeSystem/medicationrequest-category",
                                "code": "community",
                                "display": "Community"
                            }
                        ],
                        "text": "Community"
                    }
                ],
                "medicationReference": {
                    "reference": "Medication/enKmjUPhmNIu0.qGUhgWftyYj3e9jKzW-bSgzYTDBo.lmT3jXjMZW2DUgqmCLT3Kf3",
                    "display": "propranolol (INDERAL) tablet"
                },
                "subject": {
                    "reference": "Patient/e.suZwt8EI2qIX6og-yaeMQ3",
                    "display": "Heart, Herman E"
                },
                "encounter": {
                    "reference": "Encounter/eEUpS1zJ8cQbiIDhLx00oZA3",
                    "display": "Office Visit"
                },
                "authoredOn": "2013-09-04",
                "requester": {
                    "reference": "Practitioner/eM5CWtq15N0WJeuCet5bJlQ3",
                    "type": "Practitioner",
                    "display": "Physician Family Medicine, MD"
                },
                "recorder": {
                    "reference": "Practitioner/eM5CWtq15N0WJeuCet5bJlQ3",
                    "type": "Practitioner",
                    "display": "Physician Family Medicine, MD"
                },
                "courseOfTherapyType": {
                    "coding": [
                        {
                            "system": "http://terminology.hl7.org/CodeSystem/medicationrequest-course-of-therapy",
                            "code": "acute",
                            "display": "Short course (acute) therapy"
                        }
                    ],
                    "text": "Short course (acute) therapy"
                },
                "dosageInstruction": [
                    {
                        "text": "Take 1 tablet (20 mg total) by mouth 3 (three) times a day., Starting Wed 9/4/2013, Normal",
                        "patientInstruction": "Take 1 tablet (20 mg total) by mouth 3 (three) times a day.",
                        "timing": {
                            "repeat": {
                                "boundsPeriod": {
                                    "start": "2013-09-04"
                                },
                                "timeOfDay": [
                                    "09:00:00",
                                    "16:00:00",
                                    "21:00:00"
                                ]
                            },
                            "code": {
                                "text": "0900, 1600, 2100"
                            }
                        },
                        "asNeededBoolean": false,
                        "route": {
                            "coding": [
                                {
                                    "system": "http://snomed.info/sct",
                                    "code": "260548002",
                                    "display": "Oral (qualifier value)"
                                },
                                {
                                    "system": "urn:oid:1.2.840.114350.1.13.0.1.7.4.798268.7025",
                                    "code": "15",
                                    "display": "Oral"
                                }
                            ],
                            "text": "Oral"
                        },
                        "doseAndRate": [
                            {
                                "type": {
                                    "coding": [
                                        {
                                            "system": "http://epic.com/CodeSystem/dose-rate-type",
                                            "code": "calculated",
                                            "display": "calculated"
                                        }
                                    ],
                                    "text": "calculated"
                                },
                                "doseQuantity": {
                                    "value": 20,
                                    "unit": "mg",
                                    "system": "http://unitsofmeasure.org",
                                    "code": "mg"
                                }
                            },
                            {
                                "type": {
                                    "coding": [
                                        {
                                            "system": "http://epic.com/CodeSystem/dose-rate-type",
                                            "code": "admin-amount",
                                            "display": "admin-amount"
                                        }
                                    ],
                                    "text": "admin-amount"
                                },
                                "doseQuantity": {
                                    "value": 1,
                                    "unit": "tablet",
                                    "system": "http://unitsofmeasure.org",
                                    "code": "{tbl}"
                                }
                            },
                            {
                                "type": {
                                    "coding": [
                                        {
                                            "system": "http://epic.com/CodeSystem/dose-rate-type",
                                            "code": "ordered",
                                            "display": "ordered"
                                        }
                                    ],
                                    "text": "ordered"
                                },
                                "doseQuantity": {
                                    "value": 20,
                                    "unit": "mg",
                                    "system": "http://unitsofmeasure.org",
                                    "code": "mg"
                                }
                            }
                        ]
                    }
                ],
                "dispenseRequest": {
                    "validityPeriod": {
                        "start": "2013-09-04"
                    },
                    "numberOfRepeatsAllowed": 3,
                    "quantity": {
                        "value": 90,
                        "unit": "tablet"
                    },
                    "expectedSupplyDuration": {
                        "value": 30,
                        "unit": "Day",
                        "system": "http://unitsofmeasure.org",
                        "code": "d"
                    }
                },
                "priorPrescription": {
                    "reference": "MedicationRequest/efyWQMkg02.P7xGN.nngsGA3",
                    "display": "propranolol (INDERAL) 20 MG tablet"
                }
            },
            "search": {
                "mode": "match"
            }
        },
        {
            "link": [
                {
                    "relation": "self",
                    "url": "https://apporchard.epic.com/interconnect-aocurprd-oauth/api/FHIR/R4/MedicationRequest/eDYlhFMals7wEUcts4VHgTA3"
                }
            ],
            "fullUrl": "https://apporchard.epic.com/interconnect-aocurprd-oauth/api/FHIR/R4/MedicationRequest/eDYlhFMals7wEUcts4VHgTA3",
            "resource": {
                "resourceType": "MedicationRequest",
                "id": "eDYlhFMals7wEUcts4VHgTA3",
                "identifier": [
                    {
                        "use": "usual",
                        "system": "urn:oid:1.2.840.114350.1.13.0.1.7.2.798268",
                        "value": "963788"
                    }
                ],
                "status": "stopped",
                "intent": "plan",
                "category": [
                    {
                        "coding": [
                            {
                                "system": "http://terminology.hl7.org/CodeSystem/medicationrequest-category",
                                "code": "community",
                                "display": "Community"
                            }
                        ],
                        "text": "Community"
                    }
                ],
                "reportedBoolean": true,
                "medicationReference": {
                    "reference": "Medication/eZqObtEC4Ysw2NAIIUEbtqwxZ2fxPhneaVMFnXIpJWbSEywRNxehY4pL9ErJTxrLf3",
                    "display": "furosemide (LASIX) tablet"
                },
                "subject": {
                    "reference": "Patient/e.suZwt8EI2qIX6og-yaeMQ3",
                    "display": "Heart, Herman E"
                },
                "encounter": {
                    "reference": "Encounter/e0F1Ezbl0lNaHHLDlnA1hcw3",
                    "display": "Office Visit"
                },
                "authoredOn": "2013-03-06T15:49:58Z",
                "requester": {
                    "extension": [
                        {
                            "valueCode": "unknown",
                            "url": "http://hl7.org/fhir/StructureDefinition/data-absent-reason"
                        }
                    ]
                },
                "recorder": {
                    "reference": "Practitioner/erqn5oyiA9.LpVQkQ2Ulmgg3",
                    "type": "Practitioner",
                    "display": "Nurse Family Medicine, RN"
                },
                "courseOfTherapyType": {
                    "coding": [
                        {
                            "system": "http://terminology.hl7.org/CodeSystem/medicationrequest-course-of-therapy",
                            "code": "acute",
                            "display": "Short course (acute) therapy"
                        }
                    ],
                    "text": "Short course (acute) therapy"
                },
                "dosageInstruction": [
                    {
                        "text": "Take 20 mg by mouth 3 (three) times a day., Starting 3/6/2012, Until Wed 3/6/13, Historical Med",
                        "patientInstruction": "Take 20 mg by mouth 3 (three) times a day.",
                        "timing": {
                            "repeat": {
                                "boundsPeriod": {
                                    "start": "2012-03-06",
                                    "end": "2013-03-06"
                                },
                                "timeOfDay": [
                                    "09:00:00",
                                    "16:00:00",
                                    "21:00:00"
                                ]
                            },
                            "code": {
                                "text": "0900, 1600, 2100"
                            }
                        },
                        "asNeededBoolean": false,
                        "route": {
                            "coding": [
                                {
                                    "system": "http://snomed.info/sct",
                                    "code": "260548002",
                                    "display": "Oral (qualifier value)"
                                },
                                {
                                    "system": "urn:oid:1.2.840.114350.1.13.0.1.7.4.798268.7025",
                                    "code": "15",
                                    "display": "Oral"
                                }
                            ],
                            "text": "Oral"
                        },
                        "doseAndRate": [
                            {
                                "type": {
                                    "coding": [
                                        {
                                            "system": "http://epic.com/CodeSystem/dose-rate-type",
                                            "code": "ordered",
                                            "display": "ordered"
                                        }
                                    ],
                                    "text": "ordered"
                                },
                                "doseQuantity": {
                                    "value": 20,
                                    "unit": "mg",
                                    "system": "http://unitsofmeasure.org",
                                    "code": "mg"
                                }
                            }
                        ]
                    }
                ]
            },
            "search": {
                "mode": "match"
            }
        },
        {
            "link": [
                {
                    "relation": "self",
                    "url": "https://apporchard.epic.com/interconnect-aocurprd-oauth/api/FHIR/R4/MedicationRequest/eIEyuTtALiRPqTc-hASSXDQ3"
                }
            ],
            "fullUrl": "https://apporchard.epic.com/interconnect-aocurprd-oauth/api/FHIR/R4/MedicationRequest/eIEyuTtALiRPqTc-hASSXDQ3",
            "resource": {
                "resourceType": "MedicationRequest",
                "id": "eIEyuTtALiRPqTc-hASSXDQ3",
                "identifier": [
                    {
                        "use": "usual",
                        "system": "urn:oid:1.2.840.114350.1.13.0.1.7.2.798268",
                        "value": "963787"
                    }
                ],
                "status": "active",
                "intent": "order",
                "category": [
                    {
                        "coding": [
                            {
                                "system": "http://terminology.hl7.org/CodeSystem/medicationrequest-category",
                                "code": "community",
                                "display": "Community"
                            }
                        ],
                        "text": "Community"
                    }
                ],
                "medicationReference": {
                    "reference": "Medication/eZqObtEC4Ysw2NAIIUEbtq8zJTdeEKtuTGP8dGmytd06eITdm63YCb5gs7PP8adhy3",
                    "display": "furosemide (LASIX) tablet"
                },
                "subject": {
                    "reference": "Patient/e.suZwt8EI2qIX6og-yaeMQ3",
                    "display": "Heart, Herman E"
                },
                "encounter": {
                    "reference": "Encounter/eEUpS1zJ8cQbiIDhLx00oZA3",
                    "display": "Office Visit"
                },
                "authoredOn": "2013-09-04",
                "requester": {
                    "reference": "Practitioner/eM5CWtq15N0WJeuCet5bJlQ3",
                    "type": "Practitioner",
                    "display": "Physician Family Medicine, MD"
                },
                "recorder": {
                    "reference": "Practitioner/eM5CWtq15N0WJeuCet5bJlQ3",
                    "type": "Practitioner",
                    "display": "Physician Family Medicine, MD"
                },
                "courseOfTherapyType": {
                    "coding": [
                        {
                            "system": "http://terminology.hl7.org/CodeSystem/medicationrequest-course-of-therapy",
                            "code": "acute",
                            "display": "Short course (acute) therapy"
                        }
                    ],
                    "text": "Short course (acute) therapy"
                },
                "dosageInstruction": [
                    {
                        "text": "Take 1 tablet (20 mg total) by mouth 3 (three) times a day., Starting Wed 9/4/2013, Normal",
                        "patientInstruction": "Take 1 tablet (20 mg total) by mouth 3 (three) times a day.",
                        "timing": {
                            "repeat": {
                                "boundsPeriod": {
                                    "start": "2013-09-04"
                                },
                                "timeOfDay": [
                                    "09:00:00",
                                    "16:00:00",
                                    "21:00:00"
                                ]
                            },
                            "code": {
                                "text": "0900, 1600, 2100"
                            }
                        },
                        "asNeededBoolean": false,
                        "route": {
                            "coding": [
                                {
                                    "system": "http://snomed.info/sct",
                                    "code": "260548002",
                                    "display": "Oral (qualifier value)"
                                },
                                {
                                    "system": "urn:oid:1.2.840.114350.1.13.0.1.7.4.798268.7025",
                                    "code": "15",
                                    "display": "Oral"
                                }
                            ],
                            "text": "Oral"
                        },
                        "doseAndRate": [
                            {
                                "type": {
                                    "coding": [
                                        {
                                            "system": "http://epic.com/CodeSystem/dose-rate-type",
                                            "code": "calculated",
                                            "display": "calculated"
                                        }
                                    ],
                                    "text": "calculated"
                                },
                                "doseQuantity": {
                                    "value": 20,
                                    "unit": "mg",
                                    "system": "http://unitsofmeasure.org",
                                    "code": "mg"
                                }
                            },
                            {
                                "type": {
                                    "coding": [
                                        {
                                            "system": "http://epic.com/CodeSystem/dose-rate-type",
                                            "code": "admin-amount",
                                            "display": "admin-amount"
                                        }
                                    ],
                                    "text": "admin-amount"
                                },
                                "doseQuantity": {
                                    "value": 1,
                                    "unit": "tablet",
                                    "system": "http://unitsofmeasure.org",
                                    "code": "{tbl}"
                                }
                            },
                            {
                                "type": {
                                    "coding": [
                                        {
                                            "system": "http://epic.com/CodeSystem/dose-rate-type",
                                            "code": "ordered",
                                            "display": "ordered"
                                        }
                                    ],
                                    "text": "ordered"
                                },
                                "doseQuantity": {
                                    "value": 20,
                                    "unit": "mg",
                                    "system": "http://unitsofmeasure.org",
                                    "code": "mg"
                                }
                            }
                        ]
                    }
                ],
                "dispenseRequest": {
                    "validityPeriod": {
                        "start": "2013-09-04"
                    },
                    "numberOfRepeatsAllowed": 3,
                    "quantity": {
                        "value": 90,
                        "unit": "tablet"
                    },
                    "expectedSupplyDuration": {
                        "value": 30,
                        "unit": "Day",
                        "system": "http://unitsofmeasure.org",
                        "code": "d"
                    }
                },
                "priorPrescription": {
                    "reference": "MedicationRequest/ec.ZQBQNZanDHdw7w5f59Xw3",
                    "display": "furosemide (LASIX) 20 MG tablet"
                }
            },
            "search": {
                "mode": "match"
            }
        },
        {
            "link": [
                {
                    "relation": "self",
                    "url": "https://apporchard.epic.com/interconnect-aocurprd-oauth/api/FHIR/R4/MedicationRequest/eLNSCIf7cZ9ZFVbo-apMMcA3"
                }
            ],
            "fullUrl": "https://apporchard.epic.com/interconnect-aocurprd-oauth/api/FHIR/R4/MedicationRequest/eLNSCIf7cZ9ZFVbo-apMMcA3",
            "resource": {
                "resourceType": "MedicationRequest",
                "id": "eLNSCIf7cZ9ZFVbo-apMMcA3",
                "identifier": [
                    {
                        "use": "usual",
                        "system": "urn:oid:1.2.840.114350.1.13.0.1.7.2.798268",
                        "value": "956418"
                    }
                ],
                "status": "stopped",
                "intent": "order",
                "category": [
                    {
                        "coding": [
                            {
                                "system": "http://terminology.hl7.org/CodeSystem/medicationrequest-category",
                                "code": "community",
                                "display": "Community"
                            }
                        ],
                        "text": "Community"
                    }
                ],
                "medicationReference": {
                    "reference": "Medication/enKmjUPhmNIu0.qGUhgWfty8zYDame3cVQsF4ugcg6XHdOVhLF2qVFn8s.2QvxLY83",
                    "display": "propranolol (INDERAL) tablet"
                },
                "subject": {
                    "reference": "Patient/e.suZwt8EI2qIX6og-yaeMQ3",
                    "display": "Heart, Herman E"
                },
                "encounter": {
                    "reference": "Encounter/eQyVrQv2uTyj2FB4NciXt1Q3",
                    "display": "Office Visit"
                },
                "authoredOn": "2013-11-14",
                "requester": {
                    "reference": "Practitioner/eM5CWtq15N0WJeuCet5bJlQ3",
                    "type": "Practitioner",
                    "display": "Physician Family Medicine, MD"
                },
                "recorder": {
                    "reference": "Practitioner/eM5CWtq15N0WJeuCet5bJlQ3",
                    "type": "Practitioner",
                    "display": "Physician Family Medicine, MD"
                },
                "courseOfTherapyType": {
                    "coding": [
                        {
                            "system": "http://terminology.hl7.org/CodeSystem/medicationrequest-course-of-therapy",
                            "code": "acute",
                            "display": "Short course (acute) therapy"
                        }
                    ],
                    "text": "Short course (acute) therapy"
                },
                "dosageInstruction": [
                    {
                        "text": "Take 1 tablet (20 mg total) by mouth 3 (three) times a day., Starting 11/14/2013, Until Discontinued, Normal",
                        "patientInstruction": "Take 1 tablet (20 mg total) by mouth 3 (three) times a day.",
                        "timing": {
                            "repeat": {
                                "boundsPeriod": {
                                    "start": "2013-11-14",
                                    "end": "2015-10-02"
                                },
                                "timeOfDay": [
                                    "09:00:00",
                                    "16:00:00",
                                    "21:00:00"
                                ]
                            },
                            "code": {
                                "text": "0900, 1600, 2100"
                            }
                        },
                        "asNeededBoolean": false,
                        "route": {
                            "coding": [
                                {
                                    "system": "http://snomed.info/sct",
                                    "code": "260548002",
                                    "display": "Oral (qualifier value)"
                                },
                                {
                                    "system": "urn:oid:1.2.840.114350.1.13.0.1.7.4.798268.7025",
                                    "code": "15",
                                    "display": "Oral"
                                }
                            ],
                            "text": "Oral"
                        },
                        "doseAndRate": [
                            {
                                "type": {
                                    "coding": [
                                        {
                                            "system": "http://epic.com/CodeSystem/dose-rate-type",
                                            "code": "calculated",
                                            "display": "calculated"
                                        }
                                    ],
                                    "text": "calculated"
                                },
                                "doseQuantity": {
                                    "value": 20,
                                    "unit": "mg",
                                    "system": "http://unitsofmeasure.org",
                                    "code": "mg"
                                }
                            },
                            {
                                "type": {
                                    "coding": [
                                        {
                                            "system": "http://epic.com/CodeSystem/dose-rate-type",
                                            "code": "admin-amount",
                                            "display": "admin-amount"
                                        }
                                    ],
                                    "text": "admin-amount"
                                },
                                "doseQuantity": {
                                    "value": 1,
                                    "unit": "tablet",
                                    "system": "http://unitsofmeasure.org",
                                    "code": "{tbl}"
                                }
                            },
                            {
                                "type": {
                                    "coding": [
                                        {
                                            "system": "http://epic.com/CodeSystem/dose-rate-type",
                                            "code": "ordered",
                                            "display": "ordered"
                                        }
                                    ],
                                    "text": "ordered"
                                },
                                "doseQuantity": {
                                    "value": 20,
                                    "unit": "mg",
                                    "system": "http://unitsofmeasure.org",
                                    "code": "mg"
                                }
                            }
                        ]
                    }
                ],
                "dispenseRequest": {
                    "validityPeriod": {
                        "start": "2013-11-14",
                        "end": "2015-10-02"
                    },
                    "numberOfRepeatsAllowed": 3,
                    "quantity": {
                        "value": 90,
                        "unit": "tablet"
                    },
                    "expectedSupplyDuration": {
                        "value": 30,
                        "unit": "Day",
                        "system": "http://unitsofmeasure.org",
                        "code": "d"
                    }
                },
                "priorPrescription": {
                    "reference": "MedicationRequest/eow0ddBhMI9l76I.KBVbtog3",
                    "display": "propranolol (INDERAL) 20 MG tablet"
                }
            },
            "search": {
                "mode": "match"
            }
        },
        {
            "link": [
                {
                    "relation": "self",
                    "url": "https://apporchard.epic.com/interconnect-aocurprd-oauth/api/FHIR/R4/MedicationRequest/eXH4tHY90RuUD0u99OCAH1A3"
                }
            ],
            "fullUrl": "https://apporchard.epic.com/interconnect-aocurprd-oauth/api/FHIR/R4/MedicationRequest/eXH4tHY90RuUD0u99OCAH1A3",
            "resource": {
                "resourceType": "MedicationRequest",
                "id": "eXH4tHY90RuUD0u99OCAH1A3",
                "identifier": [
                    {
                        "use": "usual",
                        "system": "urn:oid:1.2.840.114350.1.13.0.1.7.2.798268",
                        "value": "956423"
                    }
                ],
                "status": "stopped",
                "intent": "order",
                "category": [
                    {
                        "coding": [
                            {
                                "system": "http://terminology.hl7.org/CodeSystem/medicationrequest-category",
                                "code": "community",
                                "display": "Community"
                            }
                        ],
                        "text": "Community"
                    }
                ],
                "medicationReference": {
                    "reference": "Medication/eZqObtEC4Ysw2NAIIUEbtq-nx8RF6X6CbDqf7W9Q4.Nq6q-va0LOY5-As2QB0Y2iK3",
                    "display": "furosemide (LASIX) tablet"
                },
                "subject": {
                    "reference": "Patient/e.suZwt8EI2qIX6og-yaeMQ3",
                    "display": "Heart, Herman E"
                },
                "encounter": {
                    "reference": "Encounter/e2HWI09ot82IzTH3rY.IhdQ3",
                    "display": "Office Visit"
                },
                "authoredOn": "2013-05-16",
                "requester": {
                    "reference": "Practitioner/ef9TegF2nfECi-0Skirbvpg3",
                    "type": "Practitioner",
                    "display": "Physician One Cardiology, MD"
                },
                "recorder": {
                    "reference": "Practitioner/ef9TegF2nfECi-0Skirbvpg3",
                    "type": "Practitioner",
                    "display": "Physician One Cardiology, MD"
                },
                "courseOfTherapyType": {
                    "coding": [
                        {
                            "system": "http://terminology.hl7.org/CodeSystem/medicationrequest-course-of-therapy",
                            "code": "acute",
                            "display": "Short course (acute) therapy"
                        }
                    ],
                    "text": "Short course (acute) therapy"
                },
                "dosageInstruction": [
                    {
                        "text": "Take 1 tablet (20 mg total) by mouth 3 (three) times a day., Starting Thu 5/16/2013, Until Thu 11/14/2013, Normal",
                        "patientInstruction": "Take 1 tablet (20 mg total) by mouth 3 (three) times a day.",
                        "timing": {
                            "repeat": {
                                "boundsPeriod": {
                                    "start": "2013-05-16",
                                    "end": "2013-11-14"
                                },
                                "count": 546,
                                "timeOfDay": [
                                    "09:00:00",
                                    "16:00:00",
                                    "21:00:00"
                                ]
                            },
                            "code": {
                                "text": "0900, 1600, 2100"
                            }
                        },
                        "asNeededBoolean": false,
                        "route": {
                            "coding": [
                                {
                                    "system": "http://snomed.info/sct",
                                    "code": "260548002",
                                    "display": "Oral (qualifier value)"
                                },
                                {
                                    "system": "urn:oid:1.2.840.114350.1.13.0.1.7.4.798268.7025",
                                    "code": "15",
                                    "display": "Oral"
                                }
                            ],
                            "text": "Oral"
                        },
                        "doseAndRate": [
                            {
                                "type": {
                                    "coding": [
                                        {
                                            "system": "http://epic.com/CodeSystem/dose-rate-type",
                                            "code": "calculated",
                                            "display": "calculated"
                                        }
                                    ],
                                    "text": "calculated"
                                },
                                "doseQuantity": {
                                    "value": 20,
                                    "unit": "mg",
                                    "system": "http://unitsofmeasure.org",
                                    "code": "mg"
                                }
                            },
                            {
                                "type": {
                                    "coding": [
                                        {
                                            "system": "http://epic.com/CodeSystem/dose-rate-type",
                                            "code": "admin-amount",
                                            "display": "admin-amount"
                                        }
                                    ],
                                    "text": "admin-amount"
                                },
                                "doseQuantity": {
                                    "value": 1,
                                    "unit": "tablet",
                                    "system": "http://unitsofmeasure.org",
                                    "code": "{tbl}"
                                }
                            },
                            {
                                "type": {
                                    "coding": [
                                        {
                                            "system": "http://epic.com/CodeSystem/dose-rate-type",
                                            "code": "ordered",
                                            "display": "ordered"
                                        }
                                    ],
                                    "text": "ordered"
                                },
                                "doseQuantity": {
                                    "value": 20,
                                    "unit": "mg",
                                    "system": "http://unitsofmeasure.org",
                                    "code": "mg"
                                }
                            }
                        ]
                    }
                ],
                "dispenseRequest": {
                    "validityPeriod": {
                        "start": "2013-05-16",
                        "end": "2013-11-14"
                    },
                    "numberOfRepeatsAllowed": 3,
                    "quantity": {
                        "value": 90,
                        "unit": "tablet"
                    },
                    "expectedSupplyDuration": {
                        "value": 30,
                        "unit": "Day",
                        "system": "http://unitsofmeasure.org",
                        "code": "d"
                    }
                },
                "priorPrescription": {
                    "reference": "MedicationRequest/e-PFxkTZH.AaS.aimg6N3lQ3",
                    "display": "furosemide (LASIX) 20 MG tablet"
                }
            },
            "search": {
                "mode": "match"
            }
        },
        {
            "link": [
                {
                    "relation": "self",
                    "url": "https://apporchard.epic.com/interconnect-aocurprd-oauth/api/FHIR/R4/MedicationRequest/eZFxgG-FzLtQ-QbetxT5pFQ3"
                }
            ],
            "fullUrl": "https://apporchard.epic.com/interconnect-aocurprd-oauth/api/FHIR/R4/MedicationRequest/eZFxgG-FzLtQ-QbetxT5pFQ3",
            "resource": {
                "resourceType": "MedicationRequest",
                "id": "eZFxgG-FzLtQ-QbetxT5pFQ3",
                "identifier": [
                    {
                        "use": "usual",
                        "system": "urn:oid:1.2.840.114350.1.13.0.1.7.2.798268",
                        "value": "956419"
                    }
                ],
                "status": "stopped",
                "intent": "order",
                "category": [
                    {
                        "coding": [
                            {
                                "system": "http://terminology.hl7.org/CodeSystem/medicationrequest-category",
                                "code": "community",
                                "display": "Community"
                            }
                        ],
                        "text": "Community"
                    }
                ],
                "medicationReference": {
                    "reference": "Medication/eZqObtEC4Ysw2NAIIUEbtqwB49dJr5G9wlJkquMHTaKGmnmX862pMvp42eULLZKwC3",
                    "display": "furosemide (LASIX) tablet"
                },
                "subject": {
                    "reference": "Patient/e.suZwt8EI2qIX6og-yaeMQ3",
                    "display": "Heart, Herman E"
                },
                "encounter": {
                    "reference": "Encounter/eQyVrQv2uTyj2FB4NciXt1Q3",
                    "display": "Office Visit"
                },
                "authoredOn": "2013-11-14",
                "requester": {
                    "reference": "Practitioner/eM5CWtq15N0WJeuCet5bJlQ3",
                    "type": "Practitioner",
                    "display": "Physician Family Medicine, MD"
                },
                "recorder": {
                    "reference": "Practitioner/eM5CWtq15N0WJeuCet5bJlQ3",
                    "type": "Practitioner",
                    "display": "Physician Family Medicine, MD"
                },
                "courseOfTherapyType": {
                    "coding": [
                        {
                            "system": "http://terminology.hl7.org/CodeSystem/medicationrequest-course-of-therapy",
                            "code": "acute",
                            "display": "Short course (acute) therapy"
                        }
                    ],
                    "text": "Short course (acute) therapy"
                },
                "dosageInstruction": [
                    {
                        "text": "Take 1 tablet (20 mg total) by mouth 3 (three) times a day., Starting 11/14/2013, Until Discontinued, Normal",
                        "patientInstruction": "Take 1 tablet (20 mg total) by mouth 3 (three) times a day.",
                        "timing": {
                            "repeat": {
                                "boundsPeriod": {
                                    "start": "2013-11-14",
                                    "end": "2015-10-02"
                                },
                                "timeOfDay": [
                                    "09:00:00",
                                    "16:00:00",
                                    "21:00:00"
                                ]
                            },
                            "code": {
                                "text": "0900, 1600, 2100"
                            }
                        },
                        "asNeededBoolean": false,
                        "route": {
                            "coding": [
                                {
                                    "system": "http://snomed.info/sct",
                                    "code": "260548002",
                                    "display": "Oral (qualifier value)"
                                },
                                {
                                    "system": "urn:oid:1.2.840.114350.1.13.0.1.7.4.798268.7025",
                                    "code": "15",
                                    "display": "Oral"
                                }
                            ],
                            "text": "Oral"
                        },
                        "doseAndRate": [
                            {
                                "type": {
                                    "coding": [
                                        {
                                            "system": "http://epic.com/CodeSystem/dose-rate-type",
                                            "code": "calculated",
                                            "display": "calculated"
                                        }
                                    ],
                                    "text": "calculated"
                                },
                                "doseQuantity": {
                                    "value": 20,
                                    "unit": "mg",
                                    "system": "http://unitsofmeasure.org",
                                    "code": "mg"
                                }
                            },
                            {
                                "type": {
                                    "coding": [
                                        {
                                            "system": "http://epic.com/CodeSystem/dose-rate-type",
                                            "code": "admin-amount",
                                            "display": "admin-amount"
                                        }
                                    ],
                                    "text": "admin-amount"
                                },
                                "doseQuantity": {
                                    "value": 1,
                                    "unit": "tablet",
                                    "system": "http://unitsofmeasure.org",
                                    "code": "{tbl}"
                                }
                            },
                            {
                                "type": {
                                    "coding": [
                                        {
                                            "system": "http://epic.com/CodeSystem/dose-rate-type",
                                            "code": "ordered",
                                            "display": "ordered"
                                        }
                                    ],
                                    "text": "ordered"
                                },
                                "doseQuantity": {
                                    "value": 20,
                                    "unit": "mg",
                                    "system": "http://unitsofmeasure.org",
                                    "code": "mg"
                                }
                            }
                        ]
                    }
                ],
                "dispenseRequest": {
                    "validityPeriod": {
                        "start": "2013-11-14",
                        "end": "2015-10-02"
                    },
                    "numberOfRepeatsAllowed": 3,
                    "quantity": {
                        "value": 90,
                        "unit": "tablet"
                    },
                    "expectedSupplyDuration": {
                        "value": 30,
                        "unit": "Day",
                        "system": "http://unitsofmeasure.org",
                        "code": "d"
                    }
                },
                "priorPrescription": {
                    "reference": "MedicationRequest/eXH4tHY90RuUD0u99OCAH1A3",
                    "display": "furosemide (LASIX) 20 MG tablet"
                }
            },
            "search": {
                "mode": "match"
            }
        },
        {
            "link": [
                {
                    "relation": "self",
                    "url": "https://apporchard.epic.com/interconnect-aocurprd-oauth/api/FHIR/R4/MedicationRequest/ec.ZQBQNZanDHdw7w5f59Xw3"
                }
            ],
            "fullUrl": "https://apporchard.epic.com/interconnect-aocurprd-oauth/api/FHIR/R4/MedicationRequest/ec.ZQBQNZanDHdw7w5f59Xw3",
            "resource": {
                "resourceType": "MedicationRequest",
                "id": "ec.ZQBQNZanDHdw7w5f59Xw3",
                "identifier": [
                    {
                        "use": "usual",
                        "system": "urn:oid:1.2.840.114350.1.13.0.1.7.2.798268",
                        "value": "963791"
                    }
                ],
                "status": "stopped",
                "intent": "order",
                "category": [
                    {
                        "coding": [
                            {
                                "system": "http://terminology.hl7.org/CodeSystem/medicationrequest-category",
                                "code": "community",
                                "display": "Community"
                            }
                        ],
                        "text": "Community"
                    }
                ],
                "medicationReference": {
                    "reference": "Medication/eZqObtEC4Ysw2NAIIUEbtq9Y10c1IhiYfJo8qvCqpwgBAN2uESiDByGH5-WhB5Qfk3",
                    "display": "furosemide (LASIX) tablet"
                },
                "subject": {
                    "reference": "Patient/e.suZwt8EI2qIX6og-yaeMQ3",
                    "display": "Heart, Herman E"
                },
                "encounter": {
                    "reference": "Encounter/e0F1Ezbl0lNaHHLDlnA1hcw3",
                    "display": "Office Visit"
                },
                "authoredOn": "2013-03-06",
                "requester": {
                    "reference": "Practitioner/ef9TegF2nfECi-0Skirbvpg3",
                    "type": "Practitioner",
                    "display": "Physician One Cardiology, MD"
                },
                "recorder": {
                    "reference": "Practitioner/ef9TegF2nfECi-0Skirbvpg3",
                    "type": "Practitioner",
                    "display": "Physician One Cardiology, MD"
                },
                "courseOfTherapyType": {
                    "coding": [
                        {
                            "system": "http://terminology.hl7.org/CodeSystem/medicationrequest-course-of-therapy",
                            "code": "acute",
                            "display": "Short course (acute) therapy"
                        }
                    ],
                    "text": "Short course (acute) therapy"
                },
                "dosageInstruction": [
                    {
                        "text": "Take 1 tablet (20 mg total) by mouth 3 (three) times a day., Starting Wed 3/6/2013, Until Wed 9/4/2013, Normal",
                        "patientInstruction": "Take 1 tablet (20 mg total) by mouth 3 (three) times a day.",
                        "timing": {
                            "repeat": {
                                "boundsPeriod": {
                                    "start": "2013-03-06",
                                    "end": "2013-09-04"
                                },
                                "count": 546,
                                "timeOfDay": [
                                    "09:00:00",
                                    "16:00:00",
                                    "21:00:00"
                                ]
                            },
                            "code": {
                                "text": "0900, 1600, 2100"
                            }
                        },
                        "asNeededBoolean": false,
                        "route": {
                            "coding": [
                                {
                                    "system": "http://snomed.info/sct",
                                    "code": "260548002",
                                    "display": "Oral (qualifier value)"
                                },
                                {
                                    "system": "urn:oid:1.2.840.114350.1.13.0.1.7.4.798268.7025",
                                    "code": "15",
                                    "display": "Oral"
                                }
                            ],
                            "text": "Oral"
                        },
                        "doseAndRate": [
                            {
                                "type": {
                                    "coding": [
                                        {
                                            "system": "http://epic.com/CodeSystem/dose-rate-type",
                                            "code": "calculated",
                                            "display": "calculated"
                                        }
                                    ],
                                    "text": "calculated"
                                },
                                "doseQuantity": {
                                    "value": 20,
                                    "unit": "mg",
                                    "system": "http://unitsofmeasure.org",
                                    "code": "mg"
                                }
                            },
                            {
                                "type": {
                                    "coding": [
                                        {
                                            "system": "http://epic.com/CodeSystem/dose-rate-type",
                                            "code": "admin-amount",
                                            "display": "admin-amount"
                                        }
                                    ],
                                    "text": "admin-amount"
                                },
                                "doseQuantity": {
                                    "value": 1,
                                    "unit": "tablet",
                                    "system": "http://unitsofmeasure.org",
                                    "code": "{tbl}"
                                }
                            },
                            {
                                "type": {
                                    "coding": [
                                        {
                                            "system": "http://epic.com/CodeSystem/dose-rate-type",
                                            "code": "ordered",
                                            "display": "ordered"
                                        }
                                    ],
                                    "text": "ordered"
                                },
                                "doseQuantity": {
                                    "value": 20,
                                    "unit": "mg",
                                    "system": "http://unitsofmeasure.org",
                                    "code": "mg"
                                }
                            }
                        ]
                    }
                ],
                "dispenseRequest": {
                    "validityPeriod": {
                        "start": "2013-03-06",
                        "end": "2013-09-04"
                    },
                    "numberOfRepeatsAllowed": 3,
                    "quantity": {
                        "value": 90,
                        "unit": "tablet"
                    },
                    "expectedSupplyDuration": {
                        "value": 30,
                        "unit": "Day",
                        "system": "http://unitsofmeasure.org",
                        "code": "d"
                    }
                },
                "priorPrescription": {
                    "reference": "MedicationRequest/eDYlhFMals7wEUcts4VHgTA3",
                    "display": "furosemide (LASIX) 20 MG tablet"
                }
            },
            "search": {
                "mode": "match"
            }
        },
        {
            "link": [
                {
                    "relation": "self",
                    "url": "https://apporchard.epic.com/interconnect-aocurprd-oauth/api/FHIR/R4/MedicationRequest/efyWQMkg02.P7xGN.nngsGA3"
                }
            ],
            "fullUrl": "https://apporchard.epic.com/interconnect-aocurprd-oauth/api/FHIR/R4/MedicationRequest/efyWQMkg02.P7xGN.nngsGA3",
            "resource": {
                "resourceType": "MedicationRequest",
                "id": "efyWQMkg02.P7xGN.nngsGA3",
                "identifier": [
                    {
                        "use": "usual",
                        "system": "urn:oid:1.2.840.114350.1.13.0.1.7.2.798268",
                        "value": "963790"
                    }
                ],
                "status": "stopped",
                "intent": "order",
                "category": [
                    {
                        "coding": [
                            {
                                "system": "http://terminology.hl7.org/CodeSystem/medicationrequest-category",
                                "code": "community",
                                "display": "Community"
                            }
                        ],
                        "text": "Community"
                    }
                ],
                "medicationReference": {
                    "reference": "Medication/enKmjUPhmNIu0.qGUhgWft370NNH2iQrCatMBPDPiZNvfl7rC4n5wweeGvPrOK6mS3",
                    "display": "propranolol (INDERAL) tablet"
                },
                "subject": {
                    "reference": "Patient/e.suZwt8EI2qIX6og-yaeMQ3",
                    "display": "Heart, Herman E"
                },
                "encounter": {
                    "reference": "Encounter/e0F1Ezbl0lNaHHLDlnA1hcw3",
                    "display": "Office Visit"
                },
                "authoredOn": "2013-03-06",
                "requester": {
                    "reference": "Practitioner/ef9TegF2nfECi-0Skirbvpg3",
                    "type": "Practitioner",
                    "display": "Physician One Cardiology, MD"
                },
                "recorder": {
                    "reference": "Practitioner/ef9TegF2nfECi-0Skirbvpg3",
                    "type": "Practitioner",
                    "display": "Physician One Cardiology, MD"
                },
                "courseOfTherapyType": {
                    "coding": [
                        {
                            "system": "http://terminology.hl7.org/CodeSystem/medicationrequest-course-of-therapy",
                            "code": "acute",
                            "display": "Short course (acute) therapy"
                        }
                    ],
                    "text": "Short course (acute) therapy"
                },
                "dosageInstruction": [
                    {
                        "text": "Take 1 tablet (20 mg total) by mouth 3 (three) times a day., Starting Wed 3/6/2013, Until Wed 9/4/2013, Normal",
                        "patientInstruction": "Take 1 tablet (20 mg total) by mouth 3 (three) times a day.",
                        "timing": {
                            "repeat": {
                                "boundsPeriod": {
                                    "start": "2013-03-06",
                                    "end": "2013-09-04"
                                },
                                "count": 546,
                                "timeOfDay": [
                                    "09:00:00",
                                    "16:00:00",
                                    "21:00:00"
                                ]
                            },
                            "code": {
                                "text": "0900, 1600, 2100"
                            }
                        },
                        "asNeededBoolean": false,
                        "route": {
                            "coding": [
                                {
                                    "system": "http://snomed.info/sct",
                                    "code": "260548002",
                                    "display": "Oral (qualifier value)"
                                },
                                {
                                    "system": "urn:oid:1.2.840.114350.1.13.0.1.7.4.798268.7025",
                                    "code": "15",
                                    "display": "Oral"
                                }
                            ],
                            "text": "Oral"
                        },
                        "doseAndRate": [
                            {
                                "type": {
                                    "coding": [
                                        {
                                            "system": "http://epic.com/CodeSystem/dose-rate-type",
                                            "code": "calculated",
                                            "display": "calculated"
                                        }
                                    ],
                                    "text": "calculated"
                                },
                                "doseQuantity": {
                                    "value": 20,
                                    "unit": "mg",
                                    "system": "http://unitsofmeasure.org",
                                    "code": "mg"
                                }
                            },
                            {
                                "type": {
                                    "coding": [
                                        {
                                            "system": "http://epic.com/CodeSystem/dose-rate-type",
                                            "code": "admin-amount",
                                            "display": "admin-amount"
                                        }
                                    ],
                                    "text": "admin-amount"
                                },
                                "doseQuantity": {
                                    "value": 1,
                                    "unit": "tablet",
                                    "system": "http://unitsofmeasure.org",
                                    "code": "{tbl}"
                                }
                            },
                            {
                                "type": {
                                    "coding": [
                                        {
                                            "system": "http://epic.com/CodeSystem/dose-rate-type",
                                            "code": "ordered",
                                            "display": "ordered"
                                        }
                                    ],
                                    "text": "ordered"
                                },
                                "doseQuantity": {
                                    "value": 20,
                                    "unit": "mg",
                                    "system": "http://unitsofmeasure.org",
                                    "code": "mg"
                                }
                            }
                        ]
                    }
                ],
                "dispenseRequest": {
                    "validityPeriod": {
                        "start": "2013-03-06",
                        "end": "2013-09-04"
                    },
                    "numberOfRepeatsAllowed": 3,
                    "quantity": {
                        "value": 90,
                        "unit": "tablet"
                    },
                    "expectedSupplyDuration": {
                        "value": 30,
                        "unit": "Day",
                        "system": "http://unitsofmeasure.org",
                        "code": "d"
                    }
                },
                "priorPrescription": {
                    "reference": "MedicationRequest/e0gMmHjC5-11E79Vd4YhsBQ3",
                    "display": "propranolol (INDERAL) 20 MG tablet"
                }
            },
            "search": {
                "mode": "match"
            }
        },
        {
            "link": [
                {
                    "relation": "self",
                    "url": "https://apporchard.epic.com/interconnect-aocurprd-oauth/api/FHIR/R4/MedicationRequest/eow0ddBhMI9l76I.KBVbtog3"
                }
            ],
            "fullUrl": "https://apporchard.epic.com/interconnect-aocurprd-oauth/api/FHIR/R4/MedicationRequest/eow0ddBhMI9l76I.KBVbtog3",
            "resource": {
                "resourceType": "MedicationRequest",
                "id": "eow0ddBhMI9l76I.KBVbtog3",
                "identifier": [
                    {
                        "use": "usual",
                        "system": "urn:oid:1.2.840.114350.1.13.0.1.7.2.798268",
                        "value": "956422"
                    }
                ],
                "status": "stopped",
                "intent": "order",
                "category": [
                    {
                        "coding": [
                            {
                                "system": "http://terminology.hl7.org/CodeSystem/medicationrequest-category",
                                "code": "community",
                                "display": "Community"
                            }
                        ],
                        "text": "Community"
                    }
                ],
                "medicationReference": {
                    "reference": "Medication/enKmjUPhmNIu0.qGUhgWft8fL-lOcWPyOzPSBTkPOTCiuOGsD7Wi7PjjYqfJq2hfZ3",
                    "display": "propranolol (INDERAL) tablet"
                },
                "subject": {
                    "reference": "Patient/e.suZwt8EI2qIX6og-yaeMQ3",
                    "display": "Heart, Herman E"
                },
                "encounter": {
                    "reference": "Encounter/e2HWI09ot82IzTH3rY.IhdQ3",
                    "display": "Office Visit"
                },
                "authoredOn": "2013-05-16",
                "requester": {
                    "reference": "Practitioner/ef9TegF2nfECi-0Skirbvpg3",
                    "type": "Practitioner",
                    "display": "Physician One Cardiology, MD"
                },
                "recorder": {
                    "reference": "Practitioner/ef9TegF2nfECi-0Skirbvpg3",
                    "type": "Practitioner",
                    "display": "Physician One Cardiology, MD"
                },
                "courseOfTherapyType": {
                    "coding": [
                        {
                            "system": "http://terminology.hl7.org/CodeSystem/medicationrequest-course-of-therapy",
                            "code": "acute",
                            "display": "Short course (acute) therapy"
                        }
                    ],
                    "text": "Short course (acute) therapy"
                },
                "dosageInstruction": [
                    {
                        "text": "Take 1 tablet (20 mg total) by mouth 3 (three) times a day., Starting Thu 5/16/2013, Until Thu 11/14/2013, Normal",
                        "patientInstruction": "Take 1 tablet (20 mg total) by mouth 3 (three) times a day.",
                        "timing": {
                            "repeat": {
                                "boundsPeriod": {
                                    "start": "2013-05-16",
                                    "end": "2013-11-14"
                                },
                                "count": 546,
                                "timeOfDay": [
                                    "09:00:00",
                                    "16:00:00",
                                    "21:00:00"
                                ]
                            },
                            "code": {
                                "text": "0900, 1600, 2100"
                            }
                        },
                        "asNeededBoolean": false,
                        "route": {
                            "coding": [
                                {
                                    "system": "http://snomed.info/sct",
                                    "code": "260548002",
                                    "display": "Oral (qualifier value)"
                                },
                                {
                                    "system": "urn:oid:1.2.840.114350.1.13.0.1.7.4.798268.7025",
                                    "code": "15",
                                    "display": "Oral"
                                }
                            ],
                            "text": "Oral"
                        },
                        "doseAndRate": [
                            {
                                "type": {
                                    "coding": [
                                        {
                                            "system": "http://epic.com/CodeSystem/dose-rate-type",
                                            "code": "calculated",
                                            "display": "calculated"
                                        }
                                    ],
                                    "text": "calculated"
                                },
                                "doseQuantity": {
                                    "value": 20,
                                    "unit": "mg",
                                    "system": "http://unitsofmeasure.org",
                                    "code": "mg"
                                }
                            },
                            {
                                "type": {
                                    "coding": [
                                        {
                                            "system": "http://epic.com/CodeSystem/dose-rate-type",
                                            "code": "admin-amount",
                                            "display": "admin-amount"
                                        }
                                    ],
                                    "text": "admin-amount"
                                },
                                "doseQuantity": {
                                    "value": 1,
                                    "unit": "tablet",
                                    "system": "http://unitsofmeasure.org",
                                    "code": "{tbl}"
                                }
                            },
                            {
                                "type": {
                                    "coding": [
                                        {
                                            "system": "http://epic.com/CodeSystem/dose-rate-type",
                                            "code": "ordered",
                                            "display": "ordered"
                                        }
                                    ],
                                    "text": "ordered"
                                },
                                "doseQuantity": {
                                    "value": 20,
                                    "unit": "mg",
                                    "system": "http://unitsofmeasure.org",
                                    "code": "mg"
                                }
                            }
                        ]
                    }
                ],
                "dispenseRequest": {
                    "validityPeriod": {
                        "start": "2013-05-16",
                        "end": "2013-11-14"
                    },
                    "numberOfRepeatsAllowed": 3,
                    "quantity": {
                        "value": 90,
                        "unit": "tablet"
                    },
                    "expectedSupplyDuration": {
                        "value": 30,
                        "unit": "Day",
                        "system": "http://unitsofmeasure.org",
                        "code": "d"
                    }
                },
                "priorPrescription": {
                    "reference": "MedicationRequest/e-fGPkNJS7BA8k2GtGlaEAw3",
                    "display": "propranolol (INDERAL) 20 MG tablet"
                }
            },
            "search": {
                "mode": "match"
            }
        }
    ]
}