{
    "resourceType": "Bundle",
    "type": "searchset",
    "total": 1,
    "link": [
        {
            "relation": "self",
            "url": "https://appmarket.epic.com/interconnect-amcurprd-oauth/api/FHIR/R4/MedicationRequest?_include=MedicationRequest:medicationReference&_include=MedicationRequest:encounter&_include=MedicationRequest:subject&_format=json&patient=eHc8Ye4rR6Mk4i2BlQfERtg3"
        }
    ],
    "entry": [
        {
            "link": [
                {
                    "relation": "self",
                    "url": "https://appmarket.epic.com/interconnect-amcurprd-oauth/api/FHIR/R4/MedicationRequest/eb86y891P7f4KaQQiOGnzYg3"
                }
            ],
            "fullUrl": "https://appmarket.epic.com/interconnect-amcurprd-oauth/api/FHIR/R4/MedicationRequest/eb86y891P7f4KaQQiOGnzYg3",
            "resource": {
                "resourceType": "MedicationRequest",
                "id": "eb86y891P7f4KaQQiOGnzYg3",
                "identifier": [
                    {
                        "use": "usual",
                        "system": "urn:oid:1.2.840.114350.1.13.0.1.7.2.798268",
                        "value": "897684"
                    }
                ],
                "status": "stopped",
                "intent": "order",
                "category": [
                    {
                        "coding": [
                            {
                                "system": "http://terminology.hl7.org/CodeSystem/medicationrequest-category",
                                "code": "inpatient",
                                "display": "Inpatient"
                            }
                        ],
                        "text": "Inpatient"
                    }
                ],
                "medicationReference": {
                    "reference": "Medication/e62B4NY5VKt1C0zdiILygAOElwPZuAzUP-x0ty1etKDN-0N8e9zlca7ldK2LgrHPR3",
                    "display": "custom IV infusion builder"
                },
                "subject": {
                    "reference": "Patient/eHc8Ye4rR6Mk4i2BlQfERtg3",
                    "display": "Burns, Milo"
                },
                "encounter": {
                    "reference": "Encounter/e-FLwVwg7DsWxlTCjezXzxg3",
                    "identifier": {
                        "use": "usual",
                        "system": "urn:oid:1.2.840.114350.1.13.0.1.7.3.698084.8",
                        "value": "13719"
                    },
                    "display": "Hospital Encounter"
                },
                "authoredOn": "2012-10-05",
                "requester": {
                    "reference": "Practitioner/eoScyX3bs1SY.2lMoHCGcVw3",
                    "type": "Practitioner",
                    "display": "Physician Pediatrics, MD"
                },
                "recorder": {
                    "reference": "Practitioner/eWi23CFKIZBN49H--0z4GVw3",
                    "type": "Practitioner",
                    "display": "Nurse Inpatient, RN"
                },
                "courseOfTherapyType": {
                    "coding": [
                        {
                            "system": "http://terminology.hl7.org/CodeSystem/medicationrequest-course-of-therapy",
                            "code": "acute",
                            "display": "Short course (acute) therapy"
                        }
                    ],
                    "text": "Short course (acute) therapy"
                },
                "dosageInstruction": [
                    {
                        "text": "Intravenous, at 3.8 mL/hr, Continuous, Starting on Fri 10/5/12 at 1300",
                        "timing": {
                            "repeat": {
                                "boundsPeriod": {
                                    "start": "2012-10-05T18:00:00Z",
                                    "end": "2015-02-26T17:15:31Z"
                                }
                            },
                            "code": {
                                "text": "Continuous"
                            }
                        },
                        "asNeededBoolean": false,
                        "route": {
                            "coding": [
                                {
                                    "system": "http://snomed.info/sct",
                                    "code": "418114005",
                                    "display": "Intravenous central route (qualifier value)"
                                },
                                {
                                    "system": "urn:oid:1.2.840.114350.1.13.0.1.7.4.798268.7025",
                                    "code": "11",
                                    "display": "Intravenous"
                                }
                            ],
                            "text": "Intravenous"
                        }
                    }
                ]
            },
            "search": {
                "mode": "match"
            }
        },
        {
            "link": [
                {
                    "relation": "self",
                    "url": "https://appmarket.epic.com/interconnect-amcurprd-oauth/api/FHIR/R4/Encounter/e-FLwVwg7DsWxlTCjezXzxg3"
                }
            ],
            "fullUrl": "https://appmarket.epic.com/interconnect-amcurprd-oauth/api/FHIR/R4/Encounter/e-FLwVwg7DsWxlTCjezXzxg3",
            "resource": {
                "resourceType": "Encounter",
                "id": "e-FLwVwg7DsWxlTCjezXzxg3",
                "identifier": [
                    {
                        "use": "usual",
                        "system": "urn:oid:1.2.840.114350.1.13.0.1.7.3.698084.8",
                        "value": "13719"
                    }
                ],
                "status": "finished",
                "class": {
                    "system": "urn:oid:1.2.840.114350.1.72.1.7.7.10.696784.13260",
                    "code": "6",
                    "display": "Discharge"
                },
                "type": [
                    {
                        "coding": [
                            {
                                "system": "urn:oid:1.2.840.114350.1.13.0.1.7.10.698084.10110",
                                "code": "107",
                                "display": "Newborn"
                            }
                        ],
                        "text": "Newborn"
                    },
                    {
                        "coding": [
                            {
                                "system": "urn:oid:1.2.840.114350.1.13.0.1.7.10.698084.30",
                                "code": "3",
                                "display": "Hospital Encounter"
                            }
                        ],
                        "text": "Hospital Encounter"
                    },
                    {
                        "coding": [
                            {
                                "system": "urn:oid:1.2.840.114350.1.13.0.1.7.10.698084.18875",
                                "code": "2",
                                "display": "Urgent"
                            }
                        ],
                        "text": "Urgent"
                    }
                ],
                "serviceType": {
                    "coding": [
                        {
                            "system": "urn:oid:1.2.840.114350.1.13.0.1.7.10.698084.18886",
                            "code": "113"
                        }
                    ]
                },
                "subject": {
                    "reference": "Patient/eHc8Ye4rR6Mk4i2BlQfERtg3",
                    "display": "Burns, Milo"
                },
                "participant": [
                    {
                        "type": [
                            {
                                "coding": [
                                    {
                                        "system": "http://hl7.org/fhir/v3/ParticipationType",
                                        "code": "ADM",
                                        "display": "admitter"
                                    }
                                ],
                                "text": "admitter"
                            }
                        ],
                        "individual": {
                            "reference": "Practitioner/eoScyX3bs1SY.2lMoHCGcVw3",
                            "type": "Practitioner",
                            "display": "Physician Pediatrics, MD"
                        }
                    },
                    {
                        "type": [
                            {
                                "coding": [
                                    {
                                        "system": "http://hl7.org/fhir/v3/ParticipationType",
                                        "code": "DIS",
                                        "display": "discharger"
                                    }
                                ],
                                "text": "discharger"
                            }
                        ],
                        "individual": {
                            "reference": "Practitioner/eoScyX3bs1SY.2lMoHCGcVw3",
                            "type": "Practitioner",
                            "display": "Physician Pediatrics, MD"
                        }
                    },
                    {
                        "type": [
                            {
                                "coding": [
                                    {
                                        "system": "http://hl7.org/fhir/v3/ParticipationType",
                                        "code": "ATND",
                                        "display": "attender"
                                    }
                                ],
                                "text": "attender"
                            }
                        ],
                        "period": {
                            "start": "2012-10-05T16:17:24Z",
                            "end": "2014-07-04T19:10:00Z"
                        },
                        "individual": {
                            "reference": "Practitioner/eoScyX3bs1SY.2lMoHCGcVw3",
                            "type": "Practitioner",
                            "display": "Physician Pediatrics, MD"
                        }
                    },
                    {
                        "extension": [
                            {
                                "valueCodeableConcept": {
                                    "coding": [
                                        {
                                            "system": "urn:oid:1.2.840.114350.1.13.0.1.7.4.698084.18832",
                                            "code": "11",
                                            "display": "General Surgery"
                                        }
                                    ],
                                    "text": "General Surgery"
                                },
                                "url": "http://open.epic.com/FHIR/StructureDefinition/extension/specialty"
                            }
                        ],
                        "type": [
                            {
                                "coding": [
                                    {
                                        "system": "urn:oid:1.2.840.114350.1.13.0.1.7.10.698084.18869",
                                        "code": "Surgeon",
                                        "display": "Surgeon"
                                    }
                                ],
                                "text": "Surgeon"
                            }
                        ],
                        "period": {
                            "start": "2013-11-08T01:06:24Z"
                        },
                        "individual": {
                            "reference": "Practitioner/eOyFJ.PiGBcbhr3T1oyJZ1A3",
                            "type": "Practitioner",
                            "display": "Physician Surgery, MD"
                        }
                    }
                ],
                "period": {
                    "start": "2012-10-05T16:17:24Z",
                    "end": "2012-10-14T19:10:00Z"
                },
                "diagnosis": [
                    {
                        "condition": {
                            "reference": "Condition/ei64VEHCd68pgdN5K5TdL3Q3",
                            "display": "Respiratory distress syndrome in newborn"
                        }
                    }
                ],
                "account": [
                    {
                        "identifier": {
                            "system": "urn:oid:1.2.840.114350.1.13.0.1.7.2.726582",
                            "value": "817"
                        },
                        "display": "BURNS,MILO"
                    }
                ],
                "hospitalization": {
                    "extension": [
                        {
                            "valueDateTime": "2012-10-05T16:17:24Z",
                            "url": "http://open.epic.com/FHIR/StructureDefinition/extension/ip-admit-datetime"
                        }
                    ],
                    "admitSource": {
                        "coding": [
                            {
                                "system": "urn:oid:1.2.840.114350.1.13.0.1.7.10.698084.10310",
                                "code": "4",
                                "display": "Hospital (Acute Care Facility)"
                            }
                        ],
                        "text": "Hospital (Acute Care Facility)"
                    },
                    "dischargeDisposition": {
                        "coding": [
                            {
                                "system": "urn:oid:1.2.840.114350.1.13.0.1.7.10.698084.18888",
                                "code": "1",
                                "display": "Home or Self Care"
                            }
                        ],
                        "text": "Home or Self Care"
                    }
                },
                "location": [
                    {
                        "location": {
                            "reference": "Location/eDWZ8uVi6puhQ4RYToyi.vRKaVvYbCDNX6hvxxZMevKo3",
                            "display": "EMH Neonatal Intensive Care"
                        },
                        "period": {
                            "start": "2012-10-05T16:17:00Z",
                            "end": "2012-10-05T17:08:00Z"
                        }
                    },
                    {
                        "location": {
                            "reference": "Location/eDWZ8uVi6puhQ4RYToyi.vRKaVvYbCDNX6hvxxZMevKo3",
                            "display": "EMH Neonatal Intensive Care"
                        },
                        "period": {
                            "start": "2012-10-05T17:08:00Z",
                            "end": "2012-10-14T19:10:00Z"
                        }
                    },
                    {
                        "location": {
                            "reference": "Location/eDWZ8uVi6puhQ4RYToyi.vRKaVvYbCDNX6hvxxZMevKo3",
                            "display": "EMH Neonatal Intensive Care"
                        }
                    },
                    {
                        "location": {
                            "reference": "Location/eQSOrLdbVrMRc68KBcTBG4A3",
                            "display": "Epic Hospital System"
                        }
                    },
                    {
                        "location": {
                            "reference": "Location/esfUU4J7kRgNrakQDttNaJQ3",
                            "display": "NICU"
                        },
                        "physicalType": {
                            "coding": [
                                {
                                    "system": "http://terminology.hl7.org/CodeSystem/location-physical-type",
                                    "code": "ro",
                                    "display": "Room"
                                }
                            ],
                            "text": "Room"
                        }
                    },
                    {
                        "location": {
                            "identifier": {
                                "system": "urn:oid:1.2.840.114350.1.13.0.1.7.2.666968",
                                "value": "208"
                            },
                            "display": "NICU-08"
                        },
                        "physicalType": {
                            "coding": [
                                {
                                    "system": "http://terminology.hl7.org/CodeSystem/location-physical-type",
                                    "code": "bd",
                                    "display": "Bed"
                                }
                            ],
                            "text": "Bed"
                        }
                    }
                ]
            },
            "search": {
                "mode": "include"
            }
        },
        {
            "link": [
                {
                    "relation": "self",
                    "url": "https://appmarket.epic.com/interconnect-amcurprd-oauth/api/FHIR/R4/Medication/e62B4NY5VKt1C0zdiILygAOElwPZuAzUP-x0ty1etKDN-0N8e9zlca7ldK2LgrHPR3"
                }
            ],
            "fullUrl": "https://appmarket.epic.com/interconnect-amcurprd-oauth/api/FHIR/R4/Medication/e62B4NY5VKt1C0zdiILygAOElwPZuAzUP-x0ty1etKDN-0N8e9zlca7ldK2LgrHPR3",
            "resource": {
                "resourceType": "Medication",
                "id": "e62B4NY5VKt1C0zdiILygAOElwPZuAzUP-x0ty1etKDN-0N8e9zlca7ldK2LgrHPR3",
                "code": {
                    "text": "custom IV infusion builder"
                },
                "ingredient": [
                    {
                        "itemReference": {
                            "reference": "Medication/eJuAyBvaxOjrmRr7bmfZH3w3",
                            "display": "dextrose 10 %"
                        },
                        "strength": {
                            "numerator": {
                                "value": 500,
                                "unit": "mL",
                                "system": "http://unitsofmeasure.org",
                                "code": "mL"
                            },
                            "denominator": {
                                "value": 500,
                                "unit": "mL",
                                "system": "http://unitsofmeasure.org",
                                "code": "mL"
                            }
                        }
                    },
                    {
                        "itemReference": {
                            "reference": "Medication/eRqTC.GrpJSWBdPXfcu40Iw3",
                            "display": "calcium gluconate"
                        },
                        "strength": {
                            "numerator": {
                                "value": 5,
                                "unit": "g",
                                "system": "http://unitsofmeasure.org",
                                "code": "g"
                            },
                            "denominator": {
                                "value": 500,
                                "unit": "mL",
                                "system": "http://unitsofmeasure.org",
                                "code": "mL"
                            }
                        }
                    }
                ]
            },
            "search": {
                "mode": "include"
            }
        },
        {
            "link": [
                {
                    "relation": "self",
                    "url": "https://appmarket.epic.com/interconnect-amcurprd-oauth/api/FHIR/R4/Patient/eHc8Ye4rR6Mk4i2BlQfERtg3"
                }
            ],
            "fullUrl": "https://appmarket.epic.com/interconnect-amcurprd-oauth/api/FHIR/R4/Patient/eHc8Ye4rR6Mk4i2BlQfERtg3",
            "resource": {
                "resourceType": "Patient",
                "id": "eHc8Ye4rR6Mk4i2BlQfERtg3",
                "extension": [
                    {
                        "extension": [
                            {
                                "valueCoding": {
                                    "system": "urn:oid:2.16.840.1.113883.6.238",
                                    "code": "2131-1",
                                    "display": "Other Race"
                                },
                                "url": "detailed"
                            },
                            {
                                "valueString": "Other",
                                "url": "text"
                            }
                        ],
                        "url": "http://hl7.org/fhir/us/core/StructureDefinition/us-core-race"
                    },
                    {
                        "extension": [
                            {
                                "valueCoding": {
                                    "system": "urn:oid:2.16.840.1.113883.6.238",
                                    "code": "2186-5",
                                    "display": "Not Hispanic or Latino"
                                },
                                "url": "ombCategory"
                            },
                            {
                                "valueString": "Not Hispanic or Latino",
                                "url": "text"
                            }
                        ],
                        "url": "http://hl7.org/fhir/us/core/StructureDefinition/us-core-ethnicity"
                    },
                    {
                        "valueCodeableConcept": {
                            "coding": [
                                {
                                    "system": "urn:oid:1.2.840.114350.1.13.0.1.7.10.698084.130.657370.19999000",
                                    "code": "male",
                                    "display": "male"
                                }
                            ]
                        },
                        "url": "http://open.epic.com/FHIR/StructureDefinition/extension/legal-sex"
                    },
                    {
                        "valueCodeableConcept": {
                            "coding": [
                                {
                                    "system": "urn:oid:1.2.840.114350.1.13.0.1.7.10.698084.130.657370.19999000",
                                    "code": "male",
                                    "display": "male"
                                }
                            ]
                        },
                        "url": "http://open.epic.com/FHIR/StructureDefinition/extension/sex-for-clinical-use"
                    },
                    {
                        "valueCode": "M",
                        "url": "http://hl7.org/fhir/us/core/StructureDefinition/us-core-birthsex"
                    }
                ],
                "identifier": [
                    {
                        "use": "usual",
                        "system": "urn:oid:2.16.840.1.113883.4.1",
                        "value": "456-26-2248"
                    },
                    {
                        "use": "usual",
                        "type": {
                            "text": "CEID"
                        },
                        "system": "urn:epic:apporchard.curprod",
                        "value": "AO1B5GM6BFBFRMG"
                    },
                    {
                        "use": "usual",
                        "type": {
                            "text": "EPIC"
                        },
                        "system": "urn:oid:1.2.840.114350.1.1",
                        "value": "E2693"
                    },
                    {
                        "use": "usual",
                        "type": {
                            "text": "EXTERNAL"
                        },
                        "system": "urn:oid:1.2.840.114350.1.13.0.1.7.2.698084",
                        "value": "Z5220"
                    },
                    {
                        "use": "usual",
                        "type": {
                            "text": "FHIR"
                        },
                        "system": "http://open.epic.com/FHIR/StructureDefinition/patient-dstu2-fhir-id",
                        "value": "Trw5FG9e6kgIMeBwdx5X8J9W.70MDpRwdX735AENNlokB"
                    },
                    {
                        "use": "usual",
                        "type": {
                            "text": "FHIR STU3"
                        },
                        "system": "http://open.epic.com/FHIR/StructureDefinition/patient-fhir-id",
                        "value": "eHc8Ye4rR6Mk4i2BlQfERtg3"
                    },
                    {
                        "use": "usual",
                        "type": {
                            "text": "INTERNAL"
                        },
                        "system": "urn:oid:1.2.840.114350.1.13.0.1.7.2.698084",
                        "value": "     Z5220"
                    },
                    {
                        "use": "usual",
                        "type": {
                            "text": "MRN"
                        },
                        "system": "urn:oid:1.2.840.114350.1.13.0.1.7.5.737384.14",
                        "value": "202459"
                    }
                ],
                "active": true,
                "name": [
                    {
                        "use": "official",
                        "text": "Milo Burns",
                        "family": "Burns",
                        "given": [
                            "Milo"
                        ]
                    },
                    {
                        "use": "usual",
                        "text": "Milo Burns",
                        "family": "Burns",
                        "given": [
                            "Milo"
                        ]
                    }
                ],
                "telecom": [
                    {
                        "system": "phone",
                        "value": "608-645-9834",
                        "use": "home"
                    }
                ],
                "gender": "male",
                "birthDate": "2012-10-03",
                "deceasedBoolean": false,
                "address": [
                    {
                        "use": "home",
                        "line": [
                            "495 Hillside Drive"
                        ],
                        "city": "SEXTONVILLE",
                        "district": "RICHLAND",
                        "state": "WI",
                        "postalCode": "53584",
                        "country": "US"
                    }
                ],
                "maritalStatus": {
                    "text": "Single"
                },
                "contact": [
                    {
                        "relationship": [
                            {
                                "coding": [
                                    {
                                        "system": "http://terminology.hl7.org/CodeSystem/v2-0131",
                                        "code": "C",
                                        "display": "Emergency Contact"
                                    },
                                    {
                                        "system": "http://terminology.hl7.org/CodeSystem/v2-0131",
                                        "code": "N",
                                        "display": "Next-of-Kin"
                                    },
                                    {
                                        "system": "urn:oid:1.2.840.114350.1.13.0.1.7.4.827665.1000",
                                        "code": "8",
                                        "display": "Mother"
                                    }
                                ],
                                "text": "Mother"
                            }
                        ],
                        "name": {
                            "use": "usual",
                            "text": "Burns,Sarah"
                        },
                        "telecom": [
                            {
                                "system": "phone",
                                "value": "608-645-9834",
                                "use": "home"
                            }
                        ],
                        "address": {
                            "use": "home",
                            "line": [
                                "495 Hillside Drive"
                            ],
                            "city": "SEXTONVILLE",
                            "district": "RICHLAND",
                            "state": "WI",
                            "postalCode": "53584",
                            "country": "US"
                        }
                    },
                    {
                        "relationship": [
                            {
                                "coding": [
                                    {
                                        "system": "http://terminology.hl7.org/CodeSystem/v2-0131",
                                        "code": "C",
                                        "display": "Emergency Contact"
                                    },
                                    {
                                        "system": "http://terminology.hl7.org/CodeSystem/v2-0131",
                                        "code": "N",
                                        "display": "Next-of-Kin"
                                    },
                                    {
                                        "system": "urn:oid:1.2.840.114350.1.13.0.1.7.4.827665.1000",
                                        "code": "3",
                                        "display": "Father"
                                    }
                                ],
                                "text": "Father"
                            }
                        ],
                        "name": {
                            "use": "usual",
                            "text": "Burns,Harry"
                        },
                        "telecom": [
                            {
                                "system": "phone",
                                "value": "608-645-9834",
                                "use": "home"
                            }
                        ],
                        "address": {
                            "use": "home",
                            "line": [
                                "495 Hillside Drive"
                            ],
                            "city": "SEXTONVILLE",
                            "district": "RICHLAND",
                            "state": "WI",
                            "postalCode": "53584",
                            "country": "US"
                        }
                    }
                ],
                "managingOrganization": {
                    "reference": "Organization/enRyWnSP963FYDpoks4NHOA3",
                    "display": "Epic Hospital System"
                }
            },
            "search": {
                "mode": "include"
            }
        }
    ]
}