{
    "resourceType": "Bundle",
    "type": "searchset",
    "total": 5,
    "link": [
        {
            "relation": "self",
            "url": "https://appmarket.epic.com/interconnect-amcurprd-oauth/api/FHIR/R4/MedicationRequest?_include=MedicationRequest:medicationReference&_include=MedicationRequest:encounter&_include=MedicationRequest:subject&_format=json&patient=eCZs7KTM2J4snU2G.-RQ3pQ3"
        }
    ],
    "entry": [
        {
            "link": [
                {
                    "relation": "self",
                    "url": "https://appmarket.epic.com/interconnect-amcurprd-oauth/api/FHIR/R4/MedicationRequest/e-XcO3qrFSc-gKm8N1AsWww3"
                }
            ],
            "fullUrl": "https://appmarket.epic.com/interconnect-amcurprd-oauth/api/FHIR/R4/MedicationRequest/e-XcO3qrFSc-gKm8N1AsWww3",
            "resource": {
                "resourceType": "MedicationRequest",
                "id": "e-XcO3qrFSc-gKm8N1AsWww3",
                "identifier": [
                    {
                        "use": "usual",
                        "system": "urn:oid:1.2.840.114350.1.13.0.1.7.2.798268",
                        "value": "961632"
                    }
                ],
                "status": "stopped",
                "intent": "order",
                "category": [
                    {
                        "coding": [
                            {
                                "system": "http://terminology.hl7.org/CodeSystem/medicationrequest-category",
                                "code": "community",
                                "display": "Community"
                            }
                        ],
                        "text": "Community"
                    }
                ],
                "medicationReference": {
                    "reference": "Medication/eZqObtEC4Ysw2NAIIUEbtq-h7QOTvjleMwyHcDGZlbAwczmR6e4YX05th4B8o1Nw43",
                    "display": "furosemide (LASIX) tablet"
                },
                "subject": {
                    "reference": "Patient/eCZs7KTM2J4snU2G.-RQ3pQ3",
                    "display": "Liver, Larry Txpa"
                },
                "encounter": {
                    "reference": "Encounter/eVtFL-0GsZjj1PwnPZYC2hw3",
                    "identifier": {
                        "use": "usual",
                        "system": "urn:oid:1.2.840.114350.1.13.0.1.7.3.698084.8",
                        "value": "18261"
                    },
                    "display": "Orders Only"
                },
                "authoredOn": "2012-04-07",
                "requester": {
                    "reference": "Practitioner/eM5CWtq15N0WJeuCet5bJlQ3",
                    "type": "Practitioner",
                    "display": "Physician Family Medicine, MD"
                },
                "recorder": {
                    "reference": "Practitioner/eM5CWtq15N0WJeuCet5bJlQ3",
                    "type": "Practitioner",
                    "display": "Physician Family Medicine, MD"
                },
                "courseOfTherapyType": {
                    "coding": [
                        {
                            "system": "http://terminology.hl7.org/CodeSystem/medicationrequest-course-of-therapy",
                            "code": "acute",
                            "display": "Short course (acute) therapy"
                        }
                    ],
                    "text": "Short course (acute) therapy"
                },
                "dosageInstruction": [
                    {
                        "text": "Take 1 tablet (20 mg total) by mouth 2 (two) times a day., Starting 4/7/2012, Until Sun 10/7/12, Print",
                        "patientInstruction": "Take 1 tablet (20 mg total) by mouth 2 (two) times a day.",
                        "timing": {
                            "repeat": {
                                "boundsPeriod": {
                                    "start": "2012-04-07",
                                    "end": "2012-10-07"
                                },
                                "count": 730,
                                "timeOfDay": [
                                    "09:00:00",
                                    "18:00:00"
                                ]
                            },
                            "code": {
                                "text": "0900, 1800"
                            }
                        },
                        "asNeededBoolean": false,
                        "route": {
                            "coding": [
                                {
                                    "system": "http://snomed.info/sct",
                                    "code": "260548002",
                                    "display": "Oral (qualifier value)"
                                },
                                {
                                    "system": "urn:oid:1.2.840.114350.1.13.0.1.7.4.798268.7025",
                                    "code": "15",
                                    "display": "Oral"
                                }
                            ],
                            "text": "Oral"
                        },
                        "doseAndRate": [
                            {
                                "type": {
                                    "coding": [
                                        {
                                            "system": "http://epic.com/CodeSystem/dose-rate-type",
                                            "code": "calculated",
                                            "display": "calculated"
                                        }
                                    ],
                                    "text": "calculated"
                                },
                                "doseQuantity": {
                                    "value": 20,
                                    "unit": "mg",
                                    "system": "http://unitsofmeasure.org",
                                    "code": "mg"
                                }
                            },
                            {
                                "type": {
                                    "coding": [
                                        {
                                            "system": "http://epic.com/CodeSystem/dose-rate-type",
                                            "code": "admin-amount",
                                            "display": "admin-amount"
                                        }
                                    ],
                                    "text": "admin-amount"
                                },
                                "doseQuantity": {
                                    "value": 1,
                                    "unit": "tablet",
                                    "system": "http://unitsofmeasure.org",
                                    "code": "{tbl}"
                                }
                            },
                            {
                                "type": {
                                    "coding": [
                                        {
                                            "system": "http://epic.com/CodeSystem/dose-rate-type",
                                            "code": "ordered",
                                            "display": "ordered"
                                        }
                                    ],
                                    "text": "ordered"
                                },
                                "doseQuantity": {
                                    "value": 20,
                                    "unit": "mg",
                                    "system": "http://unitsofmeasure.org",
                                    "code": "mg"
                                }
                            }
                        ]
                    }
                ],
                "dispenseRequest": {
                    "validityPeriod": {
                        "start": "2012-04-07",
                        "end": "2012-10-07"
                    },
                    "numberOfRepeatsAllowed": 11,
                    "quantity": {
                        "value": 60,
                        "unit": "tablet"
                    },
                    "expectedSupplyDuration": {
                        "value": 30,
                        "unit": "Day",
                        "system": "http://unitsofmeasure.org",
                        "code": "d"
                    }
                }
            },
            "search": {
                "mode": "match"
            }
        },
        {
            "link": [
                {
                    "relation": "self",
                    "url": "https://appmarket.epic.com/interconnect-amcurprd-oauth/api/FHIR/R4/MedicationRequest/ePkx90tqWDj6-UE8VdIewqg3"
                }
            ],
            "fullUrl": "https://appmarket.epic.com/interconnect-amcurprd-oauth/api/FHIR/R4/MedicationRequest/ePkx90tqWDj6-UE8VdIewqg3",
            "resource": {
                "resourceType": "MedicationRequest",
                "id": "ePkx90tqWDj6-UE8VdIewqg3",
                "identifier": [
                    {
                        "use": "usual",
                        "system": "urn:oid:1.2.840.114350.1.13.0.1.7.2.798268",
                        "value": "961622"
                    }
                ],
                "status": "active",
                "intent": "order",
                "category": [
                    {
                        "coding": [
                            {
                                "system": "http://terminology.hl7.org/CodeSystem/medicationrequest-category",
                                "code": "community",
                                "display": "Community"
                            }
                        ],
                        "text": "Community"
                    }
                ],
                "medicationReference": {
                    "reference": "Medication/enKmjUPhmNIu0.qGUhgWftymqqv3E5mGrwIuxA2q-i0BDvFJveaRlhaJIObE7sJ5A3",
                    "display": "propranolol (INDERAL) tablet"
                },
                "subject": {
                    "reference": "Patient/eCZs7KTM2J4snU2G.-RQ3pQ3",
                    "display": "Liver, Larry Txpa"
                },
                "encounter": {
                    "reference": "Encounter/epIHtygAoi2SSqAsdQMMMgw3",
                    "identifier": {
                        "use": "usual",
                        "system": "urn:oid:1.2.840.114350.1.13.0.1.7.3.698084.8",
                        "value": "18262"
                    },
                    "display": "Office Visit"
                },
                "authoredOn": "2012-10-07",
                "requester": {
                    "reference": "Practitioner/eM5CWtq15N0WJeuCet5bJlQ3",
                    "type": "Practitioner",
                    "display": "Physician Family Medicine, MD"
                },
                "recorder": {
                    "reference": "Practitioner/eM5CWtq15N0WJeuCet5bJlQ3",
                    "type": "Practitioner",
                    "display": "Physician Family Medicine, MD"
                },
                "courseOfTherapyType": {
                    "coding": [
                        {
                            "system": "http://terminology.hl7.org/CodeSystem/medicationrequest-course-of-therapy",
                            "code": "acute",
                            "display": "Short course (acute) therapy"
                        }
                    ],
                    "text": "Short course (acute) therapy"
                },
                "dosageInstruction": [
                    {
                        "text": "Take 1 tablet (20 mg total) by mouth 3 (three) times a day., Starting 10/7/2012, Until Discontinued, Print",
                        "patientInstruction": "Take 1 tablet (20 mg total) by mouth 3 (three) times a day.",
                        "timing": {
                            "repeat": {
                                "boundsPeriod": {
                                    "start": "2012-10-07"
                                },
                                "timeOfDay": [
                                    "09:00:00",
                                    "16:00:00",
                                    "21:00:00"
                                ]
                            },
                            "code": {
                                "text": "0900, 1600, 2100"
                            }
                        },
                        "asNeededBoolean": false,
                        "route": {
                            "coding": [
                                {
                                    "system": "http://snomed.info/sct",
                                    "code": "260548002",
                                    "display": "Oral (qualifier value)"
                                },
                                {
                                    "system": "urn:oid:1.2.840.114350.1.13.0.1.7.4.798268.7025",
                                    "code": "15",
                                    "display": "Oral"
                                }
                            ],
                            "text": "Oral"
                        },
                        "doseAndRate": [
                            {
                                "type": {
                                    "coding": [
                                        {
                                            "system": "http://epic.com/CodeSystem/dose-rate-type",
                                            "code": "calculated",
                                            "display": "calculated"
                                        }
                                    ],
                                    "text": "calculated"
                                },
                                "doseQuantity": {
                                    "value": 20,
                                    "unit": "mg",
                                    "system": "http://unitsofmeasure.org",
                                    "code": "mg"
                                }
                            },
                            {
                                "type": {
                                    "coding": [
                                        {
                                            "system": "http://epic.com/CodeSystem/dose-rate-type",
                                            "code": "admin-amount",
                                            "display": "admin-amount"
                                        }
                                    ],
                                    "text": "admin-amount"
                                },
                                "doseQuantity": {
                                    "value": 1,
                                    "unit": "tablet",
                                    "system": "http://unitsofmeasure.org",
                                    "code": "{tbl}"
                                }
                            },
                            {
                                "type": {
                                    "coding": [
                                        {
                                            "system": "http://epic.com/CodeSystem/dose-rate-type",
                                            "code": "ordered",
                                            "display": "ordered"
                                        }
                                    ],
                                    "text": "ordered"
                                },
                                "doseQuantity": {
                                    "value": 20,
                                    "unit": "mg",
                                    "system": "http://unitsofmeasure.org",
                                    "code": "mg"
                                }
                            }
                        ]
                    }
                ],
                "dispenseRequest": {
                    "validityPeriod": {
                        "start": "2012-10-07"
                    },
                    "numberOfRepeatsAllowed": 3,
                    "quantity": {
                        "value": 90,
                        "unit": "tablet"
                    },
                    "expectedSupplyDuration": {
                        "value": 30,
                        "unit": "Day",
                        "system": "http://unitsofmeasure.org",
                        "code": "d"
                    }
                },
                "priorPrescription": {
                    "reference": "MedicationRequest/eWf5INE0pGtSNpKK98n2JmA3",
                    "display": "propranolol (INDERAL) 20 MG tablet"
                }
            },
            "search": {
                "mode": "match"
            }
        },
        {
            "link": [
                {
                    "relation": "self",
                    "url": "https://appmarket.epic.com/interconnect-amcurprd-oauth/api/FHIR/R4/MedicationRequest/eWf5INE0pGtSNpKK98n2JmA3"
                }
            ],
            "fullUrl": "https://appmarket.epic.com/interconnect-amcurprd-oauth/api/FHIR/R4/MedicationRequest/eWf5INE0pGtSNpKK98n2JmA3",
            "resource": {
                "resourceType": "MedicationRequest",
                "id": "eWf5INE0pGtSNpKK98n2JmA3",
                "identifier": [
                    {
                        "use": "usual",
                        "system": "urn:oid:1.2.840.114350.1.13.0.1.7.2.798268",
                        "value": "961631"
                    }
                ],
                "status": "stopped",
                "intent": "order",
                "category": [
                    {
                        "coding": [
                            {
                                "system": "http://terminology.hl7.org/CodeSystem/medicationrequest-category",
                                "code": "community",
                                "display": "Community"
                            }
                        ],
                        "text": "Community"
                    }
                ],
                "medicationReference": {
                    "reference": "Medication/enKmjUPhmNIu0.qGUhgWft08hZycyBWUV1JMklmA0Y9q2qd72Hfu1PmKQg-8HuOd33",
                    "display": "propranolol (INDERAL) tablet"
                },
                "subject": {
                    "reference": "Patient/eCZs7KTM2J4snU2G.-RQ3pQ3",
                    "display": "Liver, Larry Txpa"
                },
                "encounter": {
                    "reference": "Encounter/eVtFL-0GsZjj1PwnPZYC2hw3",
                    "identifier": {
                        "use": "usual",
                        "system": "urn:oid:1.2.840.114350.1.13.0.1.7.3.698084.8",
                        "value": "18261"
                    },
                    "display": "Orders Only"
                },
                "authoredOn": "2012-04-07",
                "requester": {
                    "reference": "Practitioner/eM5CWtq15N0WJeuCet5bJlQ3",
                    "type": "Practitioner",
                    "display": "Physician Family Medicine, MD"
                },
                "recorder": {
                    "reference": "Practitioner/eM5CWtq15N0WJeuCet5bJlQ3",
                    "type": "Practitioner",
                    "display": "Physician Family Medicine, MD"
                },
                "courseOfTherapyType": {
                    "coding": [
                        {
                            "system": "http://terminology.hl7.org/CodeSystem/medicationrequest-course-of-therapy",
                            "code": "acute",
                            "display": "Short course (acute) therapy"
                        }
                    ],
                    "text": "Short course (acute) therapy"
                },
                "dosageInstruction": [
                    {
                        "text": "Take 1 tablet (20 mg total) by mouth 3 (three) times a day., Starting 4/7/2012, Until Sun 10/7/12, Print",
                        "patientInstruction": "Take 1 tablet (20 mg total) by mouth 3 (three) times a day.",
                        "timing": {
                            "repeat": {
                                "boundsPeriod": {
                                    "start": "2012-04-07",
                                    "end": "2012-10-07"
                                },
                                "timeOfDay": [
                                    "09:00:00",
                                    "16:00:00",
                                    "21:00:00"
                                ]
                            },
                            "code": {
                                "text": "0900, 1600, 2100"
                            }
                        },
                        "asNeededBoolean": false,
                        "route": {
                            "coding": [
                                {
                                    "system": "http://snomed.info/sct",
                                    "code": "260548002",
                                    "display": "Oral (qualifier value)"
                                },
                                {
                                    "system": "urn:oid:1.2.840.114350.1.13.0.1.7.4.798268.7025",
                                    "code": "15",
                                    "display": "Oral"
                                }
                            ],
                            "text": "Oral"
                        },
                        "doseAndRate": [
                            {
                                "type": {
                                    "coding": [
                                        {
                                            "system": "http://epic.com/CodeSystem/dose-rate-type",
                                            "code": "calculated",
                                            "display": "calculated"
                                        }
                                    ],
                                    "text": "calculated"
                                },
                                "doseQuantity": {
                                    "value": 20,
                                    "unit": "mg",
                                    "system": "http://unitsofmeasure.org",
                                    "code": "mg"
                                }
                            },
                            {
                                "type": {
                                    "coding": [
                                        {
                                            "system": "http://epic.com/CodeSystem/dose-rate-type",
                                            "code": "admin-amount",
                                            "display": "admin-amount"
                                        }
                                    ],
                                    "text": "admin-amount"
                                },
                                "doseQuantity": {
                                    "value": 1,
                                    "unit": "tablet",
                                    "system": "http://unitsofmeasure.org",
                                    "code": "{tbl}"
                                }
                            },
                            {
                                "type": {
                                    "coding": [
                                        {
                                            "system": "http://epic.com/CodeSystem/dose-rate-type",
                                            "code": "ordered",
                                            "display": "ordered"
                                        }
                                    ],
                                    "text": "ordered"
                                },
                                "doseQuantity": {
                                    "value": 20,
                                    "unit": "mg",
                                    "system": "http://unitsofmeasure.org",
                                    "code": "mg"
                                }
                            }
                        ]
                    }
                ],
                "dispenseRequest": {
                    "validityPeriod": {
                        "start": "2012-04-07",
                        "end": "2012-10-07"
                    },
                    "numberOfRepeatsAllowed": 3,
                    "quantity": {
                        "value": 90,
                        "unit": "tablet"
                    },
                    "expectedSupplyDuration": {
                        "value": 30,
                        "unit": "Day",
                        "system": "http://unitsofmeasure.org",
                        "code": "d"
                    }
                },
                "priorPrescription": {
                    "reference": "MedicationRequest/eYoZ.RD64oXZXzSPFG0DsjA3",
                    "display": "propranolol (INDERAL) 20 MG tablet"
                }
            },
            "search": {
                "mode": "match"
            }
        },
        {
            "link": [
                {
                    "relation": "self",
                    "url": "https://appmarket.epic.com/interconnect-amcurprd-oauth/api/FHIR/R4/MedicationRequest/eYoZ.RD64oXZXzSPFG0DsjA3"
                }
            ],
            "fullUrl": "https://appmarket.epic.com/interconnect-amcurprd-oauth/api/FHIR/R4/MedicationRequest/eYoZ.RD64oXZXzSPFG0DsjA3",
            "resource": {
                "resourceType": "MedicationRequest",
                "id": "eYoZ.RD64oXZXzSPFG0DsjA3",
                "identifier": [
                    {
                        "use": "usual",
                        "system": "urn:oid:1.2.840.114350.1.13.0.1.7.2.798268",
                        "value": "961638"
                    }
                ],
                "status": "stopped",
                "intent": "plan",
                "category": [
                    {
                        "coding": [
                            {
                                "system": "http://terminology.hl7.org/CodeSystem/medicationrequest-category",
                                "code": "community",
                                "display": "Community"
                            }
                        ],
                        "text": "Community"
                    }
                ],
                "reportedBoolean": true,
                "medicationReference": {
                    "reference": "Medication/enKmjUPhmNIu0.qGUhgWft3BciLbcSaeXmR0V.WQVGv1f9weqIa7OGQu3chdOY3VR3",
                    "display": "propranolol (INDERAL) tablet"
                },
                "subject": {
                    "reference": "Patient/eCZs7KTM2J4snU2G.-RQ3pQ3",
                    "display": "Liver, Larry Txpa"
                },
                "encounter": {
                    "reference": "Encounter/e4baYpYUV6Y4ag4iE5SPgTw3",
                    "identifier": {
                        "use": "usual",
                        "system": "urn:oid:1.2.840.114350.1.13.0.1.7.3.698084.8",
                        "value": "18258"
                    },
                    "display": "Office Visit"
                },
                "authoredOn": "2012-04-07T21:22:59Z",
                "requester": {
                    "extension": [
                        {
                            "valueCode": "unknown",
                            "url": "http://hl7.org/fhir/StructureDefinition/data-absent-reason"
                        }
                    ]
                },
                "recorder": {
                    "reference": "Practitioner/erqn5oyiA9.LpVQkQ2Ulmgg3",
                    "type": "Practitioner",
                    "display": "Nurse Family Medicine, RN"
                },
                "courseOfTherapyType": {
                    "coding": [
                        {
                            "system": "http://terminology.hl7.org/CodeSystem/medicationrequest-course-of-therapy",
                            "code": "acute",
                            "display": "Short course (acute) therapy"
                        }
                    ],
                    "text": "Short course (acute) therapy"
                },
                "dosageInstruction": [
                    {
                        "text": "Take 20 mg by mouth 3 (three) times a day., Starting 4/8/2011, Until Sat 4/7/12, Historical Med",
                        "patientInstruction": "Take 20 mg by mouth 3 (three) times a day.",
                        "timing": {
                            "repeat": {
                                "boundsPeriod": {
                                    "start": "2011-04-08",
                                    "end": "2012-04-07"
                                },
                                "timeOfDay": [
                                    "09:00:00",
                                    "16:00:00",
                                    "21:00:00"
                                ]
                            },
                            "code": {
                                "text": "0900, 1600, 2100"
                            }
                        },
                        "asNeededBoolean": false,
                        "route": {
                            "coding": [
                                {
                                    "system": "http://snomed.info/sct",
                                    "code": "260548002",
                                    "display": "Oral (qualifier value)"
                                },
                                {
                                    "system": "urn:oid:1.2.840.114350.1.13.0.1.7.4.798268.7025",
                                    "code": "15",
                                    "display": "Oral"
                                }
                            ],
                            "text": "Oral"
                        },
                        "doseAndRate": [
                            {
                                "type": {
                                    "coding": [
                                        {
                                            "system": "http://epic.com/CodeSystem/dose-rate-type",
                                            "code": "ordered",
                                            "display": "ordered"
                                        }
                                    ],
                                    "text": "ordered"
                                },
                                "doseQuantity": {
                                    "value": 20,
                                    "unit": "mg",
                                    "system": "http://unitsofmeasure.org",
                                    "code": "mg"
                                }
                            }
                        ]
                    }
                ]
            },
            "search": {
                "mode": "match"
            }
        },
        {
            "link": [
                {
                    "relation": "self",
                    "url": "https://appmarket.epic.com/interconnect-amcurprd-oauth/api/FHIR/R4/MedicationRequest/ewNCGN6hD4iXlJBJokmWILQ3"
                }
            ],
            "fullUrl": "https://appmarket.epic.com/interconnect-amcurprd-oauth/api/FHIR/R4/MedicationRequest/ewNCGN6hD4iXlJBJokmWILQ3",
            "resource": {
                "resourceType": "MedicationRequest",
                "id": "ewNCGN6hD4iXlJBJokmWILQ3",
                "identifier": [
                    {
                        "use": "usual",
                        "system": "urn:oid:1.2.840.114350.1.13.0.1.7.2.798268",
                        "value": "961623"
                    }
                ],
                "status": "completed",
                "intent": "order",
                "category": [
                    {
                        "coding": [
                            {
                                "system": "http://terminology.hl7.org/CodeSystem/medicationrequest-category",
                                "code": "community",
                                "display": "Community"
                            }
                        ],
                        "text": "Community"
                    }
                ],
                "medicationReference": {
                    "reference": "Medication/eZqObtEC4Ysw2NAIIUEbtqwnVfejepURDMAi9hls6PeAgV7Fxp2EsZ1omTAsUAj9J3",
                    "display": "furosemide (LASIX) tablet"
                },
                "subject": {
                    "reference": "Patient/eCZs7KTM2J4snU2G.-RQ3pQ3",
                    "display": "Liver, Larry Txpa"
                },
                "encounter": {
                    "reference": "Encounter/epIHtygAoi2SSqAsdQMMMgw3",
                    "identifier": {
                        "use": "usual",
                        "system": "urn:oid:1.2.840.114350.1.13.0.1.7.3.698084.8",
                        "value": "18262"
                    },
                    "display": "Office Visit"
                },
                "authoredOn": "2012-10-07",
                "requester": {
                    "reference": "Practitioner/eM5CWtq15N0WJeuCet5bJlQ3",
                    "type": "Practitioner",
                    "display": "Physician Family Medicine, MD"
                },
                "recorder": {
                    "reference": "Practitioner/eM5CWtq15N0WJeuCet5bJlQ3",
                    "type": "Practitioner",
                    "display": "Physician Family Medicine, MD"
                },
                "courseOfTherapyType": {
                    "coding": [
                        {
                            "system": "http://terminology.hl7.org/CodeSystem/medicationrequest-course-of-therapy",
                            "code": "acute",
                            "display": "Short course (acute) therapy"
                        }
                    ],
                    "text": "Short course (acute) therapy"
                },
                "dosageInstruction": [
                    {
                        "text": "Take 1 tablet (20 mg total) by mouth 2 (two) times a day., Starting 10/7/2012, Until Mon 10/7/13, Print",
                        "patientInstruction": "Take 1 tablet (20 mg total) by mouth 2 (two) times a day.",
                        "timing": {
                            "repeat": {
                                "boundsPeriod": {
                                    "start": "2012-10-07"
                                },
                                "count": 730,
                                "timeOfDay": [
                                    "09:00:00",
                                    "18:00:00"
                                ]
                            },
                            "code": {
                                "text": "0900, 1800"
                            }
                        },
                        "asNeededBoolean": false,
                        "route": {
                            "coding": [
                                {
                                    "system": "http://snomed.info/sct",
                                    "code": "260548002",
                                    "display": "Oral (qualifier value)"
                                },
                                {
                                    "system": "urn:oid:1.2.840.114350.1.13.0.1.7.4.798268.7025",
                                    "code": "15",
                                    "display": "Oral"
                                }
                            ],
                            "text": "Oral"
                        },
                        "doseAndRate": [
                            {
                                "type": {
                                    "coding": [
                                        {
                                            "system": "http://epic.com/CodeSystem/dose-rate-type",
                                            "code": "calculated",
                                            "display": "calculated"
                                        }
                                    ],
                                    "text": "calculated"
                                },
                                "doseQuantity": {
                                    "value": 20,
                                    "unit": "mg",
                                    "system": "http://unitsofmeasure.org",
                                    "code": "mg"
                                }
                            },
                            {
                                "type": {
                                    "coding": [
                                        {
                                            "system": "http://epic.com/CodeSystem/dose-rate-type",
                                            "code": "admin-amount",
                                            "display": "admin-amount"
                                        }
                                    ],
                                    "text": "admin-amount"
                                },
                                "doseQuantity": {
                                    "value": 1,
                                    "unit": "tablet",
                                    "system": "http://unitsofmeasure.org",
                                    "code": "{tbl}"
                                }
                            },
                            {
                                "type": {
                                    "coding": [
                                        {
                                            "system": "http://epic.com/CodeSystem/dose-rate-type",
                                            "code": "ordered",
                                            "display": "ordered"
                                        }
                                    ],
                                    "text": "ordered"
                                },
                                "doseQuantity": {
                                    "value": 20,
                                    "unit": "mg",
                                    "system": "http://unitsofmeasure.org",
                                    "code": "mg"
                                }
                            }
                        ]
                    }
                ],
                "dispenseRequest": {
                    "validityPeriod": {
                        "start": "2012-10-07"
                    },
                    "numberOfRepeatsAllowed": 11,
                    "quantity": {
                        "value": 60,
                        "unit": "tablet"
                    },
                    "expectedSupplyDuration": {
                        "value": 30,
                        "unit": "Day",
                        "system": "http://unitsofmeasure.org",
                        "code": "d"
                    }
                },
                "priorPrescription": {
                    "reference": "MedicationRequest/e-XcO3qrFSc-gKm8N1AsWww3",
                    "display": "furosemide (LASIX) 20 MG tablet"
                }
            },
            "search": {
                "mode": "match"
            }
        },
        {
            "link": [
                {
                    "relation": "self",
                    "url": "https://appmarket.epic.com/interconnect-amcurprd-oauth/api/FHIR/R4/Encounter/e4baYpYUV6Y4ag4iE5SPgTw3"
                }
            ],
            "fullUrl": "https://appmarket.epic.com/interconnect-amcurprd-oauth/api/FHIR/R4/Encounter/e4baYpYUV6Y4ag4iE5SPgTw3",
            "resource": {
                "resourceType": "Encounter",
                "id": "e4baYpYUV6Y4ag4iE5SPgTw3",
                "identifier": [
                    {
                        "use": "usual",
                        "system": "urn:oid:1.2.840.114350.1.13.0.1.7.3.698084.8",
                        "value": "18258"
                    }
                ],
                "status": "finished",
                "class": {
                    "system": "urn:oid:1.2.840.114350.1.72.1.7.7.10.696784.13260",
                    "code": "13",
                    "display": "Support OP Encounter"
                },
                "type": [
                    {
                        "coding": [
                            {
                                "system": "urn:oid:1.2.840.114350.1.13.0.1.7.10.698084.30",
                                "code": "101",
                                "display": "Office Visit"
                            }
                        ],
                        "text": "Office Visit"
                    }
                ],
                "subject": {
                    "reference": "Patient/eCZs7KTM2J4snU2G.-RQ3pQ3",
                    "display": "Liver, Larry Txpa"
                },
                "participant": [
                    {
                        "type": [
                            {
                                "text": "losAuthorizingPhysician"
                            }
                        ],
                        "individual": {
                            "reference": "Practitioner/eM5CWtq15N0WJeuCet5bJlQ3",
                            "type": "Practitioner",
                            "display": "Physician Family Medicine, MD"
                        }
                    }
                ],
                "period": {
                    "start": "2012-04-07",
                    "end": "2012-04-07"
                },
                "reasonCode": [
                    {
                        "coding": [
                            {
                                "system": "urn:oid:1.2.840.114350.1.13.0.1.7.2.728286",
                                "code": "239",
                                "display": "Cirrhosis"
                            }
                        ],
                        "text": "Cirrhosis"
                    },
                    {
                        "coding": [
                            {
                                "system": "urn:oid:1.2.840.114350.1.13.0.1.7.2.728286",
                                "code": "110036",
                                "display": "Hepatitis"
                            }
                        ],
                        "text": "Hepatitis"
                    }
                ],
                "location": [
                    {
                        "location": {
                            "reference": "Location/e4W4rmGe9QzuGm2Dy4NBqVc0KDe6yGld6HW95UuN-Qd03",
                            "display": "EMC Family Medicine"
                        }
                    }
                ]
            },
            "search": {
                "mode": "include"
            }
        },
        {
            "link": [
                {
                    "relation": "self",
                    "url": "https://appmarket.epic.com/interconnect-amcurprd-oauth/api/FHIR/R4/Patient/eCZs7KTM2J4snU2G.-RQ3pQ3"
                }
            ],
            "fullUrl": "https://appmarket.epic.com/interconnect-amcurprd-oauth/api/FHIR/R4/Patient/eCZs7KTM2J4snU2G.-RQ3pQ3",
            "resource": {
                "resourceType": "Patient",
                "id": "eCZs7KTM2J4snU2G.-RQ3pQ3",
                "extension": [
                    {
                        "extension": [
                            {
                                "valueCoding": {
                                    "system": "http://terminology.hl7.org/CodeSystem/v3-NullFlavor",
                                    "code": "UNK",
                                    "display": "Unknown"
                                },
                                "url": "ombCategory"
                            },
                            {
                                "valueString": "Unknown",
                                "url": "text"
                            }
                        ],
                        "url": "http://hl7.org/fhir/us/core/StructureDefinition/us-core-race"
                    },
                    {
                        "extension": [
                            {
                                "valueString": "Unknown",
                                "url": "text"
                            }
                        ],
                        "url": "http://hl7.org/fhir/us/core/StructureDefinition/us-core-ethnicity"
                    },
                    {
                        "valueCodeableConcept": {
                            "coding": [
                                {
                                    "system": "urn:oid:1.2.840.114350.1.13.0.1.7.10.698084.130.657370.19999000",
                                    "code": "male",
                                    "display": "male"
                                }
                            ]
                        },
                        "url": "http://open.epic.com/FHIR/StructureDefinition/extension/legal-sex"
                    },
                    {
                        "valueCodeableConcept": {
                            "coding": [
                                {
                                    "system": "urn:oid:1.2.840.114350.1.13.0.1.7.10.698084.130.657370.19999000",
                                    "code": "male",
                                    "display": "male"
                                }
                            ]
                        },
                        "url": "http://open.epic.com/FHIR/StructureDefinition/extension/sex-for-clinical-use"
                    },
                    {
                        "valueCode": "M",
                        "url": "http://hl7.org/fhir/us/core/StructureDefinition/us-core-birthsex"
                    }
                ],
                "identifier": [
                    {
                        "use": "usual",
                        "system": "urn:oid:2.16.840.1.113883.4.1",
                        "value": "139-21-8761"
                    },
                    {
                        "use": "usual",
                        "type": {
                            "text": "CEID"
                        },
                        "system": "urn:epic:apporchard.curprod",
                        "value": "AO19ZRL75M32L3Q"
                    },
                    {
                        "use": "usual",
                        "type": {
                            "text": "EPIC"
                        },
                        "system": "urn:oid:1.2.840.114350.1.1",
                        "value": "E3617"
                    },
                    {
                        "use": "usual",
                        "type": {
                            "text": "EXTERNAL"
                        },
                        "system": "urn:oid:1.2.840.114350.1.13.0.1.7.2.698084",
                        "value": "Z5474"
                    },
                    {
                        "use": "usual",
                        "type": {
                            "text": "FHIR"
                        },
                        "system": "http://open.epic.com/FHIR/StructureDefinition/patient-dstu2-fhir-id",
                        "value": "TlYcTR2uVyN7FGdXQyZoBGwXLqYkXnpnkT7tmiuSo8IYB"
                    },
                    {
                        "use": "usual",
                        "type": {
                            "text": "FHIR STU3"
                        },
                        "system": "http://open.epic.com/FHIR/StructureDefinition/patient-fhir-id",
                        "value": "eCZs7KTM2J4snU2G.-RQ3pQ3"
                    },
                    {
                        "use": "usual",
                        "type": {
                            "text": "INTERNAL"
                        },
                        "system": "urn:oid:1.2.840.114350.1.13.0.1.7.2.698084",
                        "value": "     Z5474"
                    },
                    {
                        "use": "usual",
                        "type": {
                            "text": "MRN"
                        },
                        "system": "urn:oid:1.2.840.114350.1.13.0.1.7.5.737384.14",
                        "value": "203372"
                    },
                    {
                        "use": "usual",
                        "type": {
                            "text": "MYCHARTLOGIN"
                        },
                        "system": "urn:oid:1.2.840.114350.1.13.0.1.7.3.878082.110",
                        "value": "LIVERLARSTXPAA"
                    },
                    {
                        "use": "usual",
                        "type": {
                            "text": "WPRINTERNAL"
                        },
                        "system": "urn:oid:1.2.840.114350.1.13.0.1.7.2.878082",
                        "value": "416"
                    },
                    {
                        "use": "usual",
                        "system": "https://open.epic.com/FHIR/StructureDefinition/PayerMemberId",
                        "value": "234234"
                    }
                ],
                "active": true,
                "name": [
                    {
                        "use": "old",
                        "text": "LIVER,LARRY",
                        "family": "Liver",
                        "given": [
                            "Larry"
                        ]
                    },
                    {
                        "use": "official",
                        "text": "Lars Txpa Liver",
                        "family": "Liver",
                        "given": [
                            "Lars",
                            "Txpa"
                        ]
                    },
                    {
                        "use": "usual",
                        "text": "Larry Txpa Liver",
                        "family": "Liver",
                        "given": [
                            "Larry",
                            "Txpa"
                        ]
                    }
                ],
                "telecom": [
                    {
                        "system": "phone",
                        "value": "555-555-5555",
                        "use": "home"
                    },
                    {
                        "system": "phone",
                        "value": "555-555-5555",
                        "use": "work"
                    },
                    {
                        "system": "phone",
                        "value": "555-555-5555",
                        "use": "mobile"
                    },
                    {
                        "system": "email",
                        "value": "devnull@epic.com"
                    }
                ],
                "gender": "male",
                "birthDate": "1975-03-08",
                "deceasedBoolean": false,
                "address": [
                    {
                        "use": "home",
                        "line": [
                            "1060 West Addison"
                        ],
                        "city": "CHICAGO",
                        "district": "COOK",
                        "state": "IL",
                        "postalCode": "60613",
                        "country": "US"
                    }
                ],
                "contact": [
                    {
                        "relationship": [
                            {
                                "coding": [
                                    {
                                        "system": "http://terminology.hl7.org/CodeSystem/v2-0131",
                                        "code": "C",
                                        "display": "Emergency Contact"
                                    },
                                    {
                                        "system": "http://terminology.hl7.org/CodeSystem/v2-0131",
                                        "code": "N",
                                        "display": "Next-of-Kin"
                                    },
                                    {
                                        "system": "urn:oid:1.2.840.114350.1.13.0.1.7.4.827665.1000",
                                        "code": "3",
                                        "display": "Father"
                                    }
                                ],
                                "text": "Father"
                            }
                        ],
                        "name": {
                            "use": "usual",
                            "text": "Evore,Herb"
                        },
                        "telecom": [
                            {
                                "system": "phone",
                                "value": "555-555-5555",
                                "use": "home"
                            },
                            {
                                "system": "phone",
                                "value": "555-555-5555",
                                "use": "work"
                            },
                            {
                                "system": "phone",
                                "value": "555-555-5555",
                                "use": "mobile"
                            }
                        ],
                        "address": {
                            "use": "home",
                            "line": [
                                "555 W. Main St."
                            ],
                            "city": "MADISON",
                            "district": "DANE",
                            "state": "WI",
                            "postalCode": "53703",
                            "country": "US"
                        }
                    },
                    {
                        "relationship": [
                            {
                                "coding": [
                                    {
                                        "system": "http://terminology.hl7.org/CodeSystem/v2-0131",
                                        "code": "E",
                                        "display": "Employer"
                                    }
                                ]
                            }
                        ],
                        "telecom": [
                            {
                                "system": "phone",
                                "value": "555-555-5555",
                                "use": "work"
                            }
                        ],
                        "organization": {
                            "display": "Home Improvements"
                        }
                    }
                ],
                "managingOrganization": {
                    "reference": "Organization/enRyWnSP963FYDpoks4NHOA3",
                    "display": "Epic Hospital System"
                }
            },
            "search": {
                "mode": "include"
            }
        },
        {
            "link": [
                {
                    "relation": "self",
                    "url": "https://appmarket.epic.com/interconnect-amcurprd-oauth/api/FHIR/R4/Encounter/eVtFL-0GsZjj1PwnPZYC2hw3"
                }
            ],
            "fullUrl": "https://appmarket.epic.com/interconnect-amcurprd-oauth/api/FHIR/R4/Encounter/eVtFL-0GsZjj1PwnPZYC2hw3",
            "resource": {
                "resourceType": "Encounter",
                "id": "eVtFL-0GsZjj1PwnPZYC2hw3",
                "identifier": [
                    {
                        "use": "usual",
                        "system": "urn:oid:1.2.840.114350.1.13.0.1.7.3.698084.8",
                        "value": "18261"
                    }
                ],
                "status": "finished",
                "class": {
                    "system": "urn:oid:1.2.840.114350.1.72.1.7.7.10.696784.13260",
                    "code": "13",
                    "display": "Support OP Encounter"
                },
                "type": [
                    {
                        "coding": [
                            {
                                "system": "urn:oid:1.2.840.114350.1.13.0.1.7.10.698084.30",
                                "code": "111",
                                "display": "Orders Only"
                            }
                        ],
                        "text": "Orders Only"
                    }
                ],
                "subject": {
                    "reference": "Patient/eCZs7KTM2J4snU2G.-RQ3pQ3",
                    "display": "Liver, Larry Txpa"
                },
                "period": {
                    "start": "2012-04-07",
                    "end": "2012-04-07"
                },
                "location": [
                    {
                        "location": {
                            "reference": "Location/e4W4rmGe9QzuGm2Dy4NBqVc0KDe6yGld6HW95UuN-Qd03",
                            "display": "EMC Family Medicine"
                        }
                    }
                ]
            },
            "search": {
                "mode": "include"
            }
        },
        {
            "link": [
                {
                    "relation": "self",
                    "url": "https://appmarket.epic.com/interconnect-amcurprd-oauth/api/FHIR/R4/Medication/eZqObtEC4Ysw2NAIIUEbtq-h7QOTvjleMwyHcDGZlbAwczmR6e4YX05th4B8o1Nw43"
                }
            ],
            "fullUrl": "https://appmarket.epic.com/interconnect-amcurprd-oauth/api/FHIR/R4/Medication/eZqObtEC4Ysw2NAIIUEbtq-h7QOTvjleMwyHcDGZlbAwczmR6e4YX05th4B8o1Nw43",
            "resource": {
                "resourceType": "Medication",
                "id": "eZqObtEC4Ysw2NAIIUEbtq-h7QOTvjleMwyHcDGZlbAwczmR6e4YX05th4B8o1Nw43",
                "code": {
                    "coding": [
                        {
                            "system": "urn:oid:2.16.840.1.113883.6.253",
                            "code": "8864"
                        },
                        {
                            "system": "urn:oid:2.16.840.1.113883.6.68",
                            "code": "37200030000305"
                        },
                        {
                            "system": "urn:oid:2.16.840.1.113883.6.162",
                            "code": "01352"
                        },
                        {
                            "system": "http://www.nlm.nih.gov/research/umls/rxnorm",
                            "code": "4603"
                        },
                        {
                            "system": "http://www.nlm.nih.gov/research/umls/rxnorm",
                            "code": "310429"
                        }
                    ],
                    "text": "furosemide (LASIX) tablet"
                },
                "form": {
                    "coding": [
                        {
                            "system": "urn:oid:1.2.840.114350.1.13.0.1.7.4.698288.310",
                            "code": "TABS",
                            "display": "tablet"
                        }
                    ],
                    "text": "tablet"
                },
                "ingredient": [
                    {
                        "itemCodeableConcept": {
                            "coding": [
                                {
                                    "system": "urn:oid:2.16.840.1.113883.6.253",
                                    "code": "8864"
                                },
                                {
                                    "system": "urn:oid:2.16.840.1.113883.6.68",
                                    "code": "37200030000305"
                                },
                                {
                                    "system": "urn:oid:2.16.840.1.113883.6.162",
                                    "code": "01352"
                                },
                                {
                                    "system": "http://www.nlm.nih.gov/research/umls/rxnorm",
                                    "code": "4603"
                                },
                                {
                                    "system": "http://www.nlm.nih.gov/research/umls/rxnorm",
                                    "code": "310429"
                                }
                            ],
                            "text": "furosemide (LASIX) tablet"
                        },
                        "strength": {
                            "numerator": {
                                "value": 20,
                                "unit": "MG",
                                "system": "http://unitsofmeasure.org",
                                "code": "mg"
                            },
                            "denominator": {
                                "value": 20,
                                "unit": "MG",
                                "system": "http://unitsofmeasure.org",
                                "code": "mg"
                            }
                        }
                    }
                ]
            },
            "search": {
                "mode": "include"
            }
        },
        {
            "link": [
                {
                    "relation": "self",
                    "url": "https://appmarket.epic.com/interconnect-amcurprd-oauth/api/FHIR/R4/Medication/eZqObtEC4Ysw2NAIIUEbtqwnVfejepURDMAi9hls6PeAgV7Fxp2EsZ1omTAsUAj9J3"
                }
            ],
            "fullUrl": "https://appmarket.epic.com/interconnect-amcurprd-oauth/api/FHIR/R4/Medication/eZqObtEC4Ysw2NAIIUEbtqwnVfejepURDMAi9hls6PeAgV7Fxp2EsZ1omTAsUAj9J3",
            "resource": {
                "resourceType": "Medication",
                "id": "eZqObtEC4Ysw2NAIIUEbtqwnVfejepURDMAi9hls6PeAgV7Fxp2EsZ1omTAsUAj9J3",
                "code": {
                    "coding": [
                        {
                            "system": "urn:oid:2.16.840.1.113883.6.253",
                            "code": "8864"
                        },
                        {
                            "system": "urn:oid:2.16.840.1.113883.6.68",
                            "code": "37200030000305"
                        },
                        {
                            "system": "urn:oid:2.16.840.1.113883.6.162",
                            "code": "01352"
                        },
                        {
                            "system": "http://www.nlm.nih.gov/research/umls/rxnorm",
                            "code": "4603"
                        },
                        {
                            "system": "http://www.nlm.nih.gov/research/umls/rxnorm",
                            "code": "310429"
                        }
                    ],
                    "text": "furosemide (LASIX) tablet"
                },
                "form": {
                    "coding": [
                        {
                            "system": "urn:oid:1.2.840.114350.1.13.0.1.7.4.698288.310",
                            "code": "TABS",
                            "display": "tablet"
                        }
                    ],
                    "text": "tablet"
                },
                "ingredient": [
                    {
                        "itemCodeableConcept": {
                            "coding": [
                                {
                                    "system": "urn:oid:2.16.840.1.113883.6.253",
                                    "code": "8864"
                                },
                                {
                                    "system": "urn:oid:2.16.840.1.113883.6.68",
                                    "code": "37200030000305"
                                },
                                {
                                    "system": "urn:oid:2.16.840.1.113883.6.162",
                                    "code": "01352"
                                },
                                {
                                    "system": "http://www.nlm.nih.gov/research/umls/rxnorm",
                                    "code": "4603"
                                },
                                {
                                    "system": "http://www.nlm.nih.gov/research/umls/rxnorm",
                                    "code": "310429"
                                }
                            ],
                            "text": "furosemide (LASIX) tablet"
                        },
                        "strength": {
                            "numerator": {
                                "value": 20,
                                "unit": "MG",
                                "system": "http://unitsofmeasure.org",
                                "code": "mg"
                            },
                            "denominator": {
                                "value": 20,
                                "unit": "MG",
                                "system": "http://unitsofmeasure.org",
                                "code": "mg"
                            }
                        }
                    }
                ]
            },
            "search": {
                "mode": "include"
            }
        },
        {
            "link": [
                {
                    "relation": "self",
                    "url": "https://appmarket.epic.com/interconnect-amcurprd-oauth/api/FHIR/R4/Medication/enKmjUPhmNIu0.qGUhgWft08hZycyBWUV1JMklmA0Y9q2qd72Hfu1PmKQg-8HuOd33"
                }
            ],
            "fullUrl": "https://appmarket.epic.com/interconnect-amcurprd-oauth/api/FHIR/R4/Medication/enKmjUPhmNIu0.qGUhgWft08hZycyBWUV1JMklmA0Y9q2qd72Hfu1PmKQg-8HuOd33",
            "resource": {
                "resourceType": "Medication",
                "id": "enKmjUPhmNIu0.qGUhgWft08hZycyBWUV1JMklmA0Y9q2qd72Hfu1PmKQg-8HuOd33",
                "code": {
                    "coding": [
                        {
                            "system": "urn:oid:2.16.840.1.113883.6.253",
                            "code": "17971"
                        },
                        {
                            "system": "urn:oid:2.16.840.1.113883.6.68",
                            "code": "33100040100310"
                        },
                        {
                            "system": "urn:oid:2.16.840.1.113883.6.162",
                            "code": "01109"
                        },
                        {
                            "system": "http://www.nlm.nih.gov/research/umls/rxnorm",
                            "code": "8787"
                        },
                        {
                            "system": "http://www.nlm.nih.gov/research/umls/rxnorm",
                            "code": "82084"
                        },
                        {
                            "system": "http://www.nlm.nih.gov/research/umls/rxnorm",
                            "code": "856457"
                        }
                    ],
                    "text": "propranolol (INDERAL) tablet"
                },
                "form": {
                    "coding": [
                        {
                            "system": "urn:oid:1.2.840.114350.1.13.0.1.7.4.698288.310",
                            "code": "TABS",
                            "display": "tablet"
                        }
                    ],
                    "text": "tablet"
                },
                "ingredient": [
                    {
                        "itemCodeableConcept": {
                            "coding": [
                                {
                                    "system": "urn:oid:2.16.840.1.113883.6.253",
                                    "code": "17971"
                                },
                                {
                                    "system": "urn:oid:2.16.840.1.113883.6.68",
                                    "code": "33100040100310"
                                },
                                {
                                    "system": "urn:oid:2.16.840.1.113883.6.162",
                                    "code": "01109"
                                },
                                {
                                    "system": "http://www.nlm.nih.gov/research/umls/rxnorm",
                                    "code": "8787"
                                },
                                {
                                    "system": "http://www.nlm.nih.gov/research/umls/rxnorm",
                                    "code": "82084"
                                },
                                {
                                    "system": "http://www.nlm.nih.gov/research/umls/rxnorm",
                                    "code": "856457"
                                }
                            ],
                            "text": "propranolol (INDERAL) tablet"
                        },
                        "strength": {
                            "numerator": {
                                "value": 20,
                                "unit": "MG",
                                "system": "http://unitsofmeasure.org",
                                "code": "mg"
                            },
                            "denominator": {
                                "value": 20,
                                "unit": "MG",
                                "system": "http://unitsofmeasure.org",
                                "code": "mg"
                            }
                        }
                    }
                ]
            },
            "search": {
                "mode": "include"
            }
        },
        {
            "link": [
                {
                    "relation": "self",
                    "url": "https://appmarket.epic.com/interconnect-amcurprd-oauth/api/FHIR/R4/Medication/enKmjUPhmNIu0.qGUhgWft3BciLbcSaeXmR0V.WQVGv1f9weqIa7OGQu3chdOY3VR3"
                }
            ],
            "fullUrl": "https://appmarket.epic.com/interconnect-amcurprd-oauth/api/FHIR/R4/Medication/enKmjUPhmNIu0.qGUhgWft3BciLbcSaeXmR0V.WQVGv1f9weqIa7OGQu3chdOY3VR3",
            "resource": {
                "resourceType": "Medication",
                "id": "enKmjUPhmNIu0.qGUhgWft3BciLbcSaeXmR0V.WQVGv1f9weqIa7OGQu3chdOY3VR3",
                "code": {
                    "coding": [
                        {
                            "system": "urn:oid:2.16.840.1.113883.6.253",
                            "code": "17971"
                        },
                        {
                            "system": "urn:oid:2.16.840.1.113883.6.68",
                            "code": "33100040100310"
                        },
                        {
                            "system": "urn:oid:2.16.840.1.113883.6.162",
                            "code": "01109"
                        },
                        {
                            "system": "http://www.nlm.nih.gov/research/umls/rxnorm",
                            "code": "8787"
                        },
                        {
                            "system": "http://www.nlm.nih.gov/research/umls/rxnorm",
                            "code": "82084"
                        },
                        {
                            "system": "http://www.nlm.nih.gov/research/umls/rxnorm",
                            "code": "856457"
                        }
                    ],
                    "text": "propranolol (INDERAL) tablet"
                },
                "form": {
                    "coding": [
                        {
                            "system": "urn:oid:1.2.840.114350.1.13.0.1.7.4.698288.310",
                            "code": "TABS",
                            "display": "tablet"
                        }
                    ],
                    "text": "tablet"
                },
                "ingredient": [
                    {
                        "itemCodeableConcept": {
                            "coding": [
                                {
                                    "system": "urn:oid:2.16.840.1.113883.6.253",
                                    "code": "17971"
                                },
                                {
                                    "system": "urn:oid:2.16.840.1.113883.6.68",
                                    "code": "33100040100310"
                                },
                                {
                                    "system": "urn:oid:2.16.840.1.113883.6.162",
                                    "code": "01109"
                                },
                                {
                                    "system": "http://www.nlm.nih.gov/research/umls/rxnorm",
                                    "code": "8787"
                                },
                                {
                                    "system": "http://www.nlm.nih.gov/research/umls/rxnorm",
                                    "code": "82084"
                                },
                                {
                                    "system": "http://www.nlm.nih.gov/research/umls/rxnorm",
                                    "code": "856457"
                                }
                            ],
                            "text": "propranolol (INDERAL) tablet"
                        },
                        "strength": {
                            "numerator": {
                                "value": 20,
                                "unit": "MG",
                                "system": "http://unitsofmeasure.org",
                                "code": "mg"
                            },
                            "denominator": {
                                "value": 20,
                                "unit": "MG",
                                "system": "http://unitsofmeasure.org",
                                "code": "mg"
                            }
                        }
                    }
                ]
            },
            "search": {
                "mode": "include"
            }
        },
        {
            "link": [
                {
                    "relation": "self",
                    "url": "https://appmarket.epic.com/interconnect-amcurprd-oauth/api/FHIR/R4/Medication/enKmjUPhmNIu0.qGUhgWftymqqv3E5mGrwIuxA2q-i0BDvFJveaRlhaJIObE7sJ5A3"
                }
            ],
            "fullUrl": "https://appmarket.epic.com/interconnect-amcurprd-oauth/api/FHIR/R4/Medication/enKmjUPhmNIu0.qGUhgWftymqqv3E5mGrwIuxA2q-i0BDvFJveaRlhaJIObE7sJ5A3",
            "resource": {
                "resourceType": "Medication",
                "id": "enKmjUPhmNIu0.qGUhgWftymqqv3E5mGrwIuxA2q-i0BDvFJveaRlhaJIObE7sJ5A3",
                "code": {
                    "coding": [
                        {
                            "system": "urn:oid:2.16.840.1.113883.6.253",
                            "code": "17971"
                        },
                        {
                            "system": "urn:oid:2.16.840.1.113883.6.68",
                            "code": "33100040100310"
                        },
                        {
                            "system": "urn:oid:2.16.840.1.113883.6.162",
                            "code": "01109"
                        },
                        {
                            "system": "http://www.nlm.nih.gov/research/umls/rxnorm",
                            "code": "8787"
                        },
                        {
                            "system": "http://www.nlm.nih.gov/research/umls/rxnorm",
                            "code": "82084"
                        },
                        {
                            "system": "http://www.nlm.nih.gov/research/umls/rxnorm",
                            "code": "856457"
                        }
                    ],
                    "text": "propranolol (INDERAL) tablet"
                },
                "form": {
                    "coding": [
                        {
                            "system": "urn:oid:1.2.840.114350.1.13.0.1.7.4.698288.310",
                            "code": "TABS",
                            "display": "tablet"
                        }
                    ],
                    "text": "tablet"
                },
                "ingredient": [
                    {
                        "itemCodeableConcept": {
                            "coding": [
                                {
                                    "system": "urn:oid:2.16.840.1.113883.6.253",
                                    "code": "17971"
                                },
                                {
                                    "system": "urn:oid:2.16.840.1.113883.6.68",
                                    "code": "33100040100310"
                                },
                                {
                                    "system": "urn:oid:2.16.840.1.113883.6.162",
                                    "code": "01109"
                                },
                                {
                                    "system": "http://www.nlm.nih.gov/research/umls/rxnorm",
                                    "code": "8787"
                                },
                                {
                                    "system": "http://www.nlm.nih.gov/research/umls/rxnorm",
                                    "code": "82084"
                                },
                                {
                                    "system": "http://www.nlm.nih.gov/research/umls/rxnorm",
                                    "code": "856457"
                                }
                            ],
                            "text": "propranolol (INDERAL) tablet"
                        },
                        "strength": {
                            "numerator": {
                                "value": 20,
                                "unit": "MG",
                                "system": "http://unitsofmeasure.org",
                                "code": "mg"
                            },
                            "denominator": {
                                "value": 20,
                                "unit": "MG",
                                "system": "http://unitsofmeasure.org",
                                "code": "mg"
                            }
                        }
                    }
                ]
            },
            "search": {
                "mode": "include"
            }
        },
        {
            "link": [
                {
                    "relation": "self",
                    "url": "https://appmarket.epic.com/interconnect-amcurprd-oauth/api/FHIR/R4/Encounter/epIHtygAoi2SSqAsdQMMMgw3"
                }
            ],
            "fullUrl": "https://appmarket.epic.com/interconnect-amcurprd-oauth/api/FHIR/R4/Encounter/epIHtygAoi2SSqAsdQMMMgw3",
            "resource": {
                "resourceType": "Encounter",
                "id": "epIHtygAoi2SSqAsdQMMMgw3",
                "identifier": [
                    {
                        "use": "usual",
                        "system": "urn:oid:1.2.840.114350.1.13.0.1.7.3.698084.8",
                        "value": "18262"
                    }
                ],
                "status": "finished",
                "class": {
                    "system": "urn:oid:1.2.840.114350.1.72.1.7.7.10.696784.13260",
                    "code": "13",
                    "display": "Support OP Encounter"
                },
                "type": [
                    {
                        "coding": [
                            {
                                "system": "urn:oid:1.2.840.114350.1.13.0.1.7.10.698084.30",
                                "code": "101",
                                "display": "Office Visit"
                            }
                        ],
                        "text": "Office Visit"
                    }
                ],
                "subject": {
                    "reference": "Patient/eCZs7KTM2J4snU2G.-RQ3pQ3",
                    "display": "Liver, Larry Txpa"
                },
                "participant": [
                    {
                        "type": [
                            {
                                "text": "losAuthorizingPhysician"
                            }
                        ],
                        "individual": {
                            "reference": "Practitioner/eM5CWtq15N0WJeuCet5bJlQ3",
                            "type": "Practitioner",
                            "display": "Physician Family Medicine, MD"
                        }
                    }
                ],
                "period": {
                    "start": "2012-10-07",
                    "end": "2012-10-07"
                },
                "reasonCode": [
                    {
                        "coding": [
                            {
                                "system": "urn:oid:1.2.840.114350.1.13.0.1.7.2.728286",
                                "code": "239",
                                "display": "Cirrhosis"
                            }
                        ],
                        "text": "Cirrhosis"
                    },
                    {
                        "coding": [
                            {
                                "system": "urn:oid:1.2.840.114350.1.13.0.1.7.2.728286",
                                "code": "110036",
                                "display": "Hepatitis"
                            }
                        ],
                        "text": "Hepatitis"
                    }
                ],
                "location": [
                    {
                        "location": {
                            "reference": "Location/e4W4rmGe9QzuGm2Dy4NBqVc0KDe6yGld6HW95UuN-Qd03",
                            "display": "EMC Family Medicine"
                        }
                    }
                ]
            },
            "search": {
                "mode": "include"
            }
        }
    ]
}