{
    "resourceType": "Bundle",
    "type": "searchset",
    "total": 6,
    "link": [
        {
            "relation": "self",
            "url": "https://appmarket.epic.com/interconnect-amcurprd-oauth/api/FHIR/R4/MedicationRequest?_include=MedicationRequest:medicationReference&_include=MedicationRequest:encounter&_include=MedicationRequest:subject&_format=json&patient=eyhVLfVSOgL54Y.-UH2H5nw3"
        }
    ],
    "entry": [
        {
            "link": [
                {
                    "relation": "self",
                    "url": "https://appmarket.epic.com/interconnect-amcurprd-oauth/api/FHIR/R4/MedicationRequest/elTdBw.MNtDE4OcnzgNWub.NLAbxYQeDx-5xYlTd7J.c3"
                }
            ],
            "fullUrl": "https://appmarket.epic.com/interconnect-amcurprd-oauth/api/FHIR/R4/MedicationRequest/elTdBw.MNtDE4OcnzgNWub.NLAbxYQeDx-5xYlTd7J.c3",
            "resource": {
                "resourceType": "MedicationRequest",
                "id": "elTdBw.MNtDE4OcnzgNWub.NLAbxYQeDx-5xYlTd7J.c3",
                "identifier": [
                    {
                        "use": "usual",
                        "system": "urn:oid:1.2.840.114350.1.13.0.1.7.2.798268",
                        "value": "1004182"
                    }
                ],
                "status": "active",
                "intent": "order",
                "category": [
                    {
                        "coding": [
                            {
                                "system": "http://terminology.hl7.org/CodeSystem/medicationrequest-category",
                                "code": "inpatient",
                                "display": "Inpatient"
                            }
                        ],
                        "text": "Inpatient"
                    }
                ],
                "medicationReference": {
                    "reference": "Medication/eSE.lzw6WwR8RkK6lleDxF0MlQEB81gq11D8mP7ZxOnKi7i62sBQ-qrC9xfqjW5123",
                    "display": "ceFAZolin (ANCEF) vial 1 g"
                },
                "subject": {
                    "reference": "Patient/eyhVLfVSOgL54Y.-UH2H5nw3",
                    "display": "Quahog, Quinn OpTime"
                },
                "encounter": {
                    "reference": "Encounter/eIJpX4Eyr5U6i-F2fJDIiqw3",
                    "identifier": {
                        "use": "usual",
                        "system": "urn:oid:1.2.840.114350.1.13.0.1.7.3.698084.8",
                        "value": "26482"
                    },
                    "display": "Hospital Encounter"
                },
                "authoredOn": "2024-07-21T18:43:48Z",
                "requester": {
                    "reference": "Practitioner/enHmcmrIOygs4mq-t6soebQ3",
                    "type": "Practitioner",
                    "display": "Anesthesiologist Anesthesia, MD"
                },
                "recorder": {
                    "reference": "Practitioner/enHmcmrIOygs4mq-t6soebQ3",
                    "type": "Practitioner",
                    "display": "Anesthesiologist Anesthesia, MD"
                },
                "courseOfTherapyType": {
                    "coding": [
                        {
                            "system": "http://terminology.hl7.org/CodeSystem/medicationrequest-course-of-therapy",
                            "code": "acute",
                            "display": "Short course (acute) therapy"
                        }
                    ],
                    "text": "Short course (acute) therapy"
                },
                "dosageInstruction": [
                    {
                        "text": "1 g, Intravenous, Every 8 hours, First dose on Sun 7/21/24 at 1345, Pre-op",
                        "timing": {
                            "repeat": {
                                "boundsPeriod": {
                                    "start": "2024-07-21T18:45:00Z"
                                },
                                "frequency": 1,
                                "period": 8,
                                "periodUnit": "h"
                            },
                            "code": {
                                "text": "Every 8 hours"
                            }
                        },
                        "asNeededBoolean": false,
                        "route": {
                            "coding": [
                                {
                                    "system": "http://snomed.info/sct",
                                    "code": "418114005",
                                    "display": "Intravenous central route (qualifier value)"
                                },
                                {
                                    "system": "urn:oid:1.2.840.114350.1.13.0.1.7.4.798268.7025",
                                    "code": "11",
                                    "display": "Intravenous"
                                }
                            ],
                            "text": "Intravenous"
                        },
                        "doseAndRate": [
                            {
                                "type": {
                                    "coding": [
                                        {
                                            "system": "http://epic.com/CodeSystem/dose-rate-type",
                                            "code": "calculated",
                                            "display": "calculated"
                                        }
                                    ],
                                    "text": "calculated"
                                },
                                "doseQuantity": {
                                    "value": 1,
                                    "unit": "g",
                                    "system": "http://unitsofmeasure.org",
                                    "code": "g"
                                }
                            },
                            {
                                "type": {
                                    "coding": [
                                        {
                                            "system": "http://epic.com/CodeSystem/dose-rate-type",
                                            "code": "admin-amount",
                                            "display": "admin-amount"
                                        }
                                    ],
                                    "text": "admin-amount"
                                },
                                "doseQuantity": {
                                    "value": 1000,
                                    "unit": "mg",
                                    "system": "http://unitsofmeasure.org",
                                    "code": "mg"
                                }
                            },
                            {
                                "type": {
                                    "coding": [
                                        {
                                            "system": "http://epic.com/CodeSystem/dose-rate-type",
                                            "code": "ordered",
                                            "display": "ordered"
                                        }
                                    ],
                                    "text": "ordered"
                                },
                                "doseQuantity": {
                                    "value": 1,
                                    "unit": "g",
                                    "system": "http://unitsofmeasure.org",
                                    "code": "g"
                                }
                            }
                        ]
                    }
                ]
            },
            "search": {
                "mode": "match"
            }
        },
        {
            "link": [
                {
                    "relation": "self",
                    "url": "https://appmarket.epic.com/interconnect-amcurprd-oauth/api/FHIR/R4/MedicationRequest/epVeNv3q7x5ejs4BhLl3aXtS5ZEQumWI1S1CbX7nSz4o3"
                }
            ],
            "fullUrl": "https://appmarket.epic.com/interconnect-amcurprd-oauth/api/FHIR/R4/MedicationRequest/epVeNv3q7x5ejs4BhLl3aXtS5ZEQumWI1S1CbX7nSz4o3",
            "resource": {
                "resourceType": "MedicationRequest",
                "id": "epVeNv3q7x5ejs4BhLl3aXtS5ZEQumWI1S1CbX7nSz4o3",
                "identifier": [
                    {
                        "use": "usual",
                        "system": "urn:oid:1.2.840.114350.1.13.0.1.7.2.798268",
                        "value": "1004179"
                    }
                ],
                "status": "stopped",
                "intent": "order",
                "category": [
                    {
                        "coding": [
                            {
                                "system": "http://terminology.hl7.org/CodeSystem/medicationrequest-category",
                                "code": "outpatient",
                                "display": "Outpatient"
                            }
                        ],
                        "text": "Outpatient"
                    }
                ],
                "medicationReference": {
                    "reference": "Medication/ehE6DK7mjLRc1FUvWb3oOp1safUlLSCDdGctqCsDMXV8xjU0lu3p3eOprO3Nr6t2b3",
                    "display": "lidocaine (XYLOCAINE) injection 1%"
                },
                "subject": {
                    "reference": "Patient/eyhVLfVSOgL54Y.-UH2H5nw3",
                    "display": "Quahog, Quinn OpTime"
                },
                "encounter": {
                    "extension": [
                        {
                            "valueIdentifier": {
                                "use": "usual",
                                "system": "urn:oid:1.2.840.114350.1.13.0.1.7.3.698084.8",
                                "value": "26484"
                            },
                            "url": "http://open.epic.com/FHIR/StructureDefinition/extension/ce-encounter-id"
                        }
                    ],
                    "identifier": {
                        "use": "usual",
                        "system": "urn:oid:1.2.840.114350.1.13.0.1.7.3.698084.8",
                        "value": "26478"
                    },
                    "display": "Anesthesia"
                },
                "authoredOn": "2024-07-21T19:16:12Z",
                "requester": {
                    "reference": "Practitioner/enHmcmrIOygs4mq-t6soebQ3",
                    "type": "Practitioner",
                    "display": "Anesthesiologist Anesthesia, MD"
                },
                "recorder": {
                    "reference": "Practitioner/enHmcmrIOygs4mq-t6soebQ3",
                    "type": "Practitioner",
                    "display": "Anesthesiologist Anesthesia, MD"
                },
                "courseOfTherapyType": {
                    "coding": [
                        {
                            "system": "http://terminology.hl7.org/CodeSystem/medicationrequest-course-of-therapy",
                            "code": "acute",
                            "display": "Short course (acute) therapy"
                        }
                    ],
                    "text": "Short course (acute) therapy"
                },
                "dosageInstruction": [
                    {
                        "text": "Infiltration, As needed, Starting on Sun 7/21/24 at 1355, Anesthesia Intra-op",
                        "timing": {
                            "repeat": {
                                "boundsPeriod": {
                                    "start": "2024-07-21T18:55:00Z",
                                    "end": "2024-07-21T19:28:52Z"
                                },
                                "frequency": 1,
                                "period": 1,
                                "periodUnit": "d"
                            },
                            "code": {
                                "text": "As needed"
                            }
                        },
                        "asNeededBoolean": true,
                        "route": {
                            "coding": [
                                {
                                    "system": "urn:oid:1.2.840.114350.1.13.0.1.7.4.798268.7025",
                                    "code": "69",
                                    "display": "Infiltration"
                                }
                            ],
                            "text": "Infiltration"
                        }
                    }
                ]
            },
            "search": {
                "mode": "match"
            }
        },
        {
            "link": [
                {
                    "relation": "self",
                    "url": "https://appmarket.epic.com/interconnect-amcurprd-oauth/api/FHIR/R4/MedicationRequest/eqFjOde3U4Yme.AdUNL6xNhCGLYDTtv.uAbzLUUfbc6k3"
                }
            ],
            "fullUrl": "https://appmarket.epic.com/interconnect-amcurprd-oauth/api/FHIR/R4/MedicationRequest/eqFjOde3U4Yme.AdUNL6xNhCGLYDTtv.uAbzLUUfbc6k3",
            "resource": {
                "resourceType": "MedicationRequest",
                "id": "eqFjOde3U4Yme.AdUNL6xNhCGLYDTtv.uAbzLUUfbc6k3",
                "identifier": [
                    {
                        "use": "usual",
                        "system": "urn:oid:1.2.840.114350.1.13.0.1.7.2.798268",
                        "value": "1004178"
                    }
                ],
                "status": "stopped",
                "intent": "order",
                "category": [
                    {
                        "coding": [
                            {
                                "system": "http://terminology.hl7.org/CodeSystem/medicationrequest-category",
                                "code": "outpatient",
                                "display": "Outpatient"
                            }
                        ],
                        "text": "Outpatient"
                    }
                ],
                "medicationReference": {
                    "reference": "Medication/eLu2VdOC6P5lcOo4zwFLXkRzY71SUSS9snN81rqY5bDejaxzxfRS27ZB5O32ajde53",
                    "display": "bupivacaine PF (MARCAINE) injection 0.25%"
                },
                "subject": {
                    "reference": "Patient/eyhVLfVSOgL54Y.-UH2H5nw3",
                    "display": "Quahog, Quinn OpTime"
                },
                "encounter": {
                    "extension": [
                        {
                            "valueIdentifier": {
                                "use": "usual",
                                "system": "urn:oid:1.2.840.114350.1.13.0.1.7.3.698084.8",
                                "value": "26484"
                            },
                            "url": "http://open.epic.com/FHIR/StructureDefinition/extension/ce-encounter-id"
                        }
                    ],
                    "identifier": {
                        "use": "usual",
                        "system": "urn:oid:1.2.840.114350.1.13.0.1.7.3.698084.8",
                        "value": "26478"
                    },
                    "display": "Anesthesia"
                },
                "authoredOn": "2024-07-21T19:13:06Z",
                "requester": {
                    "reference": "Practitioner/enHmcmrIOygs4mq-t6soebQ3",
                    "type": "Practitioner",
                    "display": "Anesthesiologist Anesthesia, MD"
                },
                "recorder": {
                    "reference": "Practitioner/enHmcmrIOygs4mq-t6soebQ3",
                    "type": "Practitioner",
                    "display": "Anesthesiologist Anesthesia, MD"
                },
                "courseOfTherapyType": {
                    "coding": [
                        {
                            "system": "http://terminology.hl7.org/CodeSystem/medicationrequest-course-of-therapy",
                            "code": "acute",
                            "display": "Short course (acute) therapy"
                        }
                    ],
                    "text": "Short course (acute) therapy"
                },
                "dosageInstruction": [
                    {
                        "text": "Injection, As needed, Starting on Sun 7/21/24 at 1355, Anesthesia Intra-op",
                        "timing": {
                            "repeat": {
                                "boundsPeriod": {
                                    "start": "2024-07-21T18:55:00Z",
                                    "end": "2024-07-21T19:28:52Z"
                                },
                                "frequency": 1,
                                "period": 1,
                                "periodUnit": "d"
                            },
                            "code": {
                                "text": "As needed"
                            }
                        },
                        "asNeededBoolean": true,
                        "route": {
                            "coding": [
                                {
                                    "system": "urn:oid:1.2.840.114350.1.13.0.1.7.4.798268.7025",
                                    "code": "4",
                                    "display": "Injection"
                                }
                            ],
                            "text": "Injection"
                        }
                    }
                ]
            },
            "search": {
                "mode": "match"
            }
        },
        {
            "link": [
                {
                    "relation": "self",
                    "url": "https://appmarket.epic.com/interconnect-amcurprd-oauth/api/FHIR/R4/MedicationRequest/eu9tN-Hq2L8-Uo-wouCujyHqMIGuasihXVPEDfrTV5QI3"
                }
            ],
            "fullUrl": "https://appmarket.epic.com/interconnect-amcurprd-oauth/api/FHIR/R4/MedicationRequest/eu9tN-Hq2L8-Uo-wouCujyHqMIGuasihXVPEDfrTV5QI3",
            "resource": {
                "resourceType": "MedicationRequest",
                "id": "eu9tN-Hq2L8-Uo-wouCujyHqMIGuasihXVPEDfrTV5QI3",
                "identifier": [
                    {
                        "use": "usual",
                        "system": "urn:oid:1.2.840.114350.1.13.0.1.7.2.798268",
                        "value": "1004183"
                    }
                ],
                "status": "active",
                "intent": "order",
                "category": [
                    {
                        "coding": [
                            {
                                "system": "http://terminology.hl7.org/CodeSystem/medicationrequest-category",
                                "code": "inpatient",
                                "display": "Inpatient"
                            }
                        ],
                        "text": "Inpatient"
                    }
                ],
                "medicationReference": {
                    "reference": "Medication/eWCOOhuY7VrJRnwGlY6ZUH7iOySl98J5-vN9y4PPrdJWehOcUkorjwnnmtkvqXyBO3",
                    "display": "oxytocin (PITOCIN) injection"
                },
                "subject": {
                    "reference": "Patient/eyhVLfVSOgL54Y.-UH2H5nw3",
                    "display": "Quahog, Quinn OpTime"
                },
                "encounter": {
                    "reference": "Encounter/eIJpX4Eyr5U6i-F2fJDIiqw3",
                    "identifier": {
                        "use": "usual",
                        "system": "urn:oid:1.2.840.114350.1.13.0.1.7.3.698084.8",
                        "value": "26482"
                    },
                    "display": "Hospital Encounter"
                },
                "authoredOn": "2024-07-21T19:07:02Z",
                "requester": {
                    "reference": "Practitioner/eVT9hzSLnZz5PmCuSreI5Lg3",
                    "type": "Practitioner",
                    "display": "Physician Two Obstetrics, MD"
                },
                "recorder": {
                    "reference": "Practitioner/eDVuYlDs87Qx2fqY.Cl5K7A3",
                    "type": "Practitioner",
                    "display": "Nurse Obstetricsld, RN"
                },
                "courseOfTherapyType": {
                    "coding": [
                        {
                            "system": "http://terminology.hl7.org/CodeSystem/medicationrequest-course-of-therapy",
                            "code": "acute",
                            "display": "Short course (acute) therapy"
                        }
                    ],
                    "text": "Short course (acute) therapy"
                },
                "dosageInstruction": [
                    {
                        "text": "As needed, Starting on Sun 7/21/24 at 1406, Intra-op",
                        "timing": {
                            "repeat": {
                                "boundsPeriod": {
                                    "start": "2024-07-21T19:06:00Z"
                                },
                                "frequency": 1,
                                "period": 1,
                                "periodUnit": "d"
                            },
                            "code": {
                                "text": "As needed"
                            }
                        },
                        "asNeededBoolean": true
                    }
                ]
            },
            "search": {
                "mode": "match"
            }
        },
        {
            "link": [
                {
                    "relation": "self",
                    "url": "https://appmarket.epic.com/interconnect-amcurprd-oauth/api/FHIR/R4/MedicationRequest/exJn1C8NwDeTzd9g4nwSqFeWpo7urQr8YGXGptDLCnl83"
                }
            ],
            "fullUrl": "https://appmarket.epic.com/interconnect-amcurprd-oauth/api/FHIR/R4/MedicationRequest/exJn1C8NwDeTzd9g4nwSqFeWpo7urQr8YGXGptDLCnl83",
            "resource": {
                "resourceType": "MedicationRequest",
                "id": "exJn1C8NwDeTzd9g4nwSqFeWpo7urQr8YGXGptDLCnl83",
                "identifier": [
                    {
                        "use": "usual",
                        "system": "urn:oid:1.2.840.114350.1.13.0.1.7.2.798268",
                        "value": "1004180"
                    }
                ],
                "status": "stopped",
                "intent": "order",
                "category": [
                    {
                        "coding": [
                            {
                                "system": "http://terminology.hl7.org/CodeSystem/medicationrequest-category",
                                "code": "outpatient",
                                "display": "Outpatient"
                            }
                        ],
                        "text": "Outpatient"
                    }
                ],
                "medicationReference": {
                    "reference": "Medication/erPDTHR6K2WA2zNgYrjQmN1sBVv9OGQlFQtaBN8XxGxowk8IQgmSF5.c7GjN.w0j83",
                    "display": "ondansetron (ZOFRAN) 2 mg/mL injection"
                },
                "subject": {
                    "reference": "Patient/eyhVLfVSOgL54Y.-UH2H5nw3",
                    "display": "Quahog, Quinn OpTime"
                },
                "encounter": {
                    "extension": [
                        {
                            "valueIdentifier": {
                                "use": "usual",
                                "system": "urn:oid:1.2.840.114350.1.13.0.1.7.3.698084.8",
                                "value": "26484"
                            },
                            "url": "http://open.epic.com/FHIR/StructureDefinition/extension/ce-encounter-id"
                        }
                    ],
                    "identifier": {
                        "use": "usual",
                        "system": "urn:oid:1.2.840.114350.1.13.0.1.7.3.698084.8",
                        "value": "26478"
                    },
                    "display": "Anesthesia"
                },
                "authoredOn": "2024-07-21T19:16:30Z",
                "requester": {
                    "reference": "Practitioner/enHmcmrIOygs4mq-t6soebQ3",
                    "type": "Practitioner",
                    "display": "Anesthesiologist Anesthesia, MD"
                },
                "recorder": {
                    "reference": "Practitioner/enHmcmrIOygs4mq-t6soebQ3",
                    "type": "Practitioner",
                    "display": "Anesthesiologist Anesthesia, MD"
                },
                "courseOfTherapyType": {
                    "coding": [
                        {
                            "system": "http://terminology.hl7.org/CodeSystem/medicationrequest-course-of-therapy",
                            "code": "acute",
                            "display": "Short course (acute) therapy"
                        }
                    ],
                    "text": "Short course (acute) therapy"
                },
                "dosageInstruction": [
                    {
                        "text": "Intravenous, As needed, nausea, vomiting, Starting on Sun 7/21/24 at 1402, Anesthesia Intra-op",
                        "timing": {
                            "repeat": {
                                "boundsPeriod": {
                                    "start": "2024-07-21T19:02:00Z",
                                    "end": "2024-07-21T19:28:52Z"
                                },
                                "frequency": 1,
                                "period": 1,
                                "periodUnit": "d"
                            },
                            "code": {
                                "text": "As needed"
                            }
                        },
                        "asNeededBoolean": true,
                        "route": {
                            "coding": [
                                {
                                    "system": "http://snomed.info/sct",
                                    "code": "418114005",
                                    "display": "Intravenous central route (qualifier value)"
                                },
                                {
                                    "system": "urn:oid:1.2.840.114350.1.13.0.1.7.4.798268.7025",
                                    "code": "11",
                                    "display": "Intravenous"
                                }
                            ],
                            "text": "Intravenous"
                        }
                    }
                ]
            },
            "search": {
                "mode": "match"
            }
        },
        {
            "link": [
                {
                    "relation": "self",
                    "url": "https://appmarket.epic.com/interconnect-amcurprd-oauth/api/FHIR/R4/MedicationRequest/eyacnBFCza-56TDF4OzfidVyAfhJlzggSCIND2yhlMj03"
                }
            ],
            "fullUrl": "https://appmarket.epic.com/interconnect-amcurprd-oauth/api/FHIR/R4/MedicationRequest/eyacnBFCza-56TDF4OzfidVyAfhJlzggSCIND2yhlMj03",
            "resource": {
                "resourceType": "MedicationRequest",
                "id": "eyacnBFCza-56TDF4OzfidVyAfhJlzggSCIND2yhlMj03",
                "identifier": [
                    {
                        "use": "usual",
                        "system": "urn:oid:1.2.840.114350.1.13.0.1.7.2.798268",
                        "value": "1004181"
                    }
                ],
                "status": "active",
                "intent": "order",
                "category": [
                    {
                        "coding": [
                            {
                                "system": "http://terminology.hl7.org/CodeSystem/medicationrequest-category",
                                "code": "inpatient",
                                "display": "Inpatient"
                            }
                        ],
                        "text": "Inpatient"
                    }
                ],
                "medicationReference": {
                    "reference": "Medication/eLSmw4.Hohw6Y.tKyg5VnVURrqlQDDQxU9028xighwRKuCXAlizHlxutpPmHErh.d3",
                    "display": "lactated Ringer's infusion"
                },
                "subject": {
                    "reference": "Patient/eyhVLfVSOgL54Y.-UH2H5nw3",
                    "display": "Quahog, Quinn OpTime"
                },
                "encounter": {
                    "reference": "Encounter/eIJpX4Eyr5U6i-F2fJDIiqw3",
                    "identifier": {
                        "use": "usual",
                        "system": "urn:oid:1.2.840.114350.1.13.0.1.7.3.698084.8",
                        "value": "26482"
                    },
                    "display": "Hospital Encounter"
                },
                "authoredOn": "2024-07-21T18:39:55Z",
                "requester": {
                    "reference": "Practitioner/enHmcmrIOygs4mq-t6soebQ3",
                    "type": "Practitioner",
                    "display": "Anesthesiologist Anesthesia, MD"
                },
                "recorder": {
                    "reference": "Practitioner/enHmcmrIOygs4mq-t6soebQ3",
                    "type": "Practitioner",
                    "display": "Anesthesiologist Anesthesia, MD"
                },
                "courseOfTherapyType": {
                    "coding": [
                        {
                            "system": "http://terminology.hl7.org/CodeSystem/medicationrequest-course-of-therapy",
                            "code": "acute",
                            "display": "Short course (acute) therapy"
                        }
                    ],
                    "text": "Short course (acute) therapy"
                },
                "dosageInstruction": [
                    {
                        "text": "100 mL/hr, Intravenous, Continuous, Starting on Sun 7/21/24 at 1345",
                        "timing": {
                            "repeat": {
                                "boundsPeriod": {
                                    "start": "2024-07-21T18:45:00Z"
                                }
                            },
                            "code": {
                                "text": "Continuous"
                            }
                        },
                        "asNeededBoolean": false,
                        "route": {
                            "coding": [
                                {
                                    "system": "http://snomed.info/sct",
                                    "code": "418114005",
                                    "display": "Intravenous central route (qualifier value)"
                                },
                                {
                                    "system": "urn:oid:1.2.840.114350.1.13.0.1.7.4.798268.7025",
                                    "code": "11",
                                    "display": "Intravenous"
                                }
                            ],
                            "text": "Intravenous"
                        },
                        "doseAndRate": [
                            {
                                "type": {
                                    "coding": [
                                        {
                                            "system": "http://epic.com/CodeSystem/dose-rate-type",
                                            "code": "calculated",
                                            "display": "calculated"
                                        }
                                    ],
                                    "text": "calculated"
                                },
                                "doseQuantity": {
                                    "value": 100,
                                    "unit": "mL/hr",
                                    "system": "http://unitsofmeasure.org",
                                    "code": "mL/h"
                                }
                            },
                            {
                                "type": {
                                    "coding": [
                                        {
                                            "system": "http://epic.com/CodeSystem/dose-rate-type",
                                            "code": "ordered",
                                            "display": "ordered"
                                        }
                                    ],
                                    "text": "ordered"
                                },
                                "doseQuantity": {
                                    "value": 100,
                                    "unit": "mL/hr",
                                    "system": "http://unitsofmeasure.org",
                                    "code": "mL/h"
                                }
                            }
                        ]
                    }
                ]
            },
            "search": {
                "mode": "match"
            }
        },
        {
            "link": [
                {
                    "relation": "self",
                    "url": "https://appmarket.epic.com/interconnect-amcurprd-oauth/api/FHIR/R4/Encounter/eIJpX4Eyr5U6i-F2fJDIiqw3"
                }
            ],
            "fullUrl": "https://appmarket.epic.com/interconnect-amcurprd-oauth/api/FHIR/R4/Encounter/eIJpX4Eyr5U6i-F2fJDIiqw3",
            "resource": {
                "resourceType": "Encounter",
                "id": "eIJpX4Eyr5U6i-F2fJDIiqw3",
                "identifier": [
                    {
                        "use": "usual",
                        "system": "urn:oid:1.2.840.114350.1.13.0.1.7.3.698084.8",
                        "value": "26482"
                    }
                ],
                "status": "in-progress",
                "class": {
                    "system": "urn:oid:1.2.840.114350.1.72.1.7.7.10.696784.13260",
                    "code": "3",
                    "display": "Admission"
                },
                "type": [
                    {
                        "coding": [
                            {
                                "system": "urn:oid:1.2.840.114350.1.13.0.1.7.10.698084.10110",
                                "code": "108",
                                "display": "Surgery Admit"
                            }
                        ],
                        "text": "Surgery Admit"
                    },
                    {
                        "coding": [
                            {
                                "system": "urn:oid:1.2.840.114350.1.13.0.1.7.10.698084.30",
                                "code": "3",
                                "display": "Hospital Encounter"
                            }
                        ],
                        "text": "Hospital Encounter"
                    },
                    {
                        "coding": [
                            {
                                "system": "urn:oid:1.2.840.114350.1.13.0.1.7.10.698084.18875",
                                "code": "3",
                                "display": "Elective"
                            }
                        ],
                        "text": "Elective"
                    }
                ],
                "serviceType": {
                    "coding": [
                        {
                            "system": "urn:oid:1.2.840.114350.1.13.0.1.7.10.698084.18886",
                            "code": "124",
                            "display": "General Surgery"
                        }
                    ],
                    "text": "General Surgery"
                },
                "subject": {
                    "reference": "Patient/eyhVLfVSOgL54Y.-UH2H5nw3",
                    "display": "Quahog, Quinn OpTime"
                },
                "episodeOfCare": [
                    {
                        "reference": "EpisodeOfCare/e95YnFiIsk3zOSpwKCpZOwg3",
                        "type": "EpisodeOfCare",
                        "display": "Pregnancy"
                    }
                ],
                "participant": [
                    {
                        "type": [
                            {
                                "coding": [
                                    {
                                        "system": "http://hl7.org/fhir/v3/ParticipationType",
                                        "code": "ADM",
                                        "display": "admitter"
                                    }
                                ],
                                "text": "admitter"
                            }
                        ],
                        "individual": {
                            "reference": "Practitioner/eVT9hzSLnZz5PmCuSreI5Lg3",
                            "type": "Practitioner",
                            "display": "Physician Two Obstetrics, MD"
                        }
                    },
                    {
                        "type": [
                            {
                                "coding": [
                                    {
                                        "system": "http://hl7.org/fhir/v3/ParticipationType",
                                        "code": "ATND",
                                        "display": "attender"
                                    }
                                ],
                                "text": "attender"
                            }
                        ],
                        "period": {
                            "start": "2024-07-21T14:55:37Z"
                        },
                        "individual": {
                            "reference": "Practitioner/eVT9hzSLnZz5PmCuSreI5Lg3",
                            "type": "Practitioner",
                            "display": "Physician Two Obstetrics, MD"
                        }
                    },
                    {
                        "extension": [
                            {
                                "valueCodeableConcept": {
                                    "coding": [
                                        {
                                            "system": "urn:oid:1.2.840.114350.1.13.0.1.7.4.698084.18832",
                                            "code": "22",
                                            "display": "Obstetrics and Gynecology"
                                        }
                                    ],
                                    "text": "Obstetrics and Gynecology"
                                },
                                "url": "http://open.epic.com/FHIR/StructureDefinition/extension/specialty"
                            }
                        ],
                        "type": [
                            {
                                "coding": [
                                    {
                                        "system": "urn:oid:1.2.840.114350.1.13.0.1.7.10.698084.18869",
                                        "code": "Surgeon",
                                        "display": "Surgeon"
                                    }
                                ],
                                "text": "Surgeon"
                            }
                        ],
                        "period": {
                            "start": "2024-07-21T14:51:45Z"
                        },
                        "individual": {
                            "reference": "Practitioner/eVT9hzSLnZz5PmCuSreI5Lg3",
                            "type": "Practitioner",
                            "display": "Physician Two Obstetrics, MD"
                        }
                    },
                    {
                        "extension": [
                            {
                                "valueCodeableConcept": {
                                    "coding": [
                                        {
                                            "system": "urn:oid:1.2.840.114350.1.13.0.1.7.4.698084.18832",
                                            "code": "2",
                                            "display": "Anesthesiology"
                                        }
                                    ],
                                    "text": "Anesthesiology"
                                },
                                "url": "http://open.epic.com/FHIR/StructureDefinition/extension/specialty"
                            }
                        ],
                        "type": [
                            {
                                "coding": [
                                    {
                                        "system": "urn:oid:1.2.840.114350.1.13.0.1.7.10.698084.18869",
                                        "code": "Anesthesiolo",
                                        "display": "Anesthesiologist"
                                    }
                                ],
                                "text": "Anesthesiologist"
                            }
                        ],
                        "period": {
                            "start": "2024-07-21T19:02:06Z"
                        },
                        "individual": {
                            "reference": "Practitioner/enHmcmrIOygs4mq-t6soebQ3",
                            "type": "Practitioner",
                            "display": "Anesthesiologist Anesthesia, MD"
                        }
                    }
                ],
                "period": {
                    "start": "2024-07-21T14:55:37Z"
                },
                "reasonCode": [
                    {
                        "coding": [
                            {
                                "system": "http://snomed.info/sct",
                                "code": "36813001",
                                "display": "Placenta previa (disorder)"
                            }
                        ],
                        "text": "Placenta previa, third trimester"
                    }
                ],
                "account": [
                    {
                        "identifier": {
                            "system": "urn:oid:1.2.840.114350.1.13.0.1.7.2.726582",
                            "value": "2714"
                        },
                        "display": "QUAHOG,QUINN OPTIME"
                    }
                ],
                "hospitalization": {
                    "extension": [
                        {
                            "valueDateTime": "2024-07-21T14:55:37Z",
                            "url": "http://open.epic.com/FHIR/StructureDefinition/extension/observation-datetime"
                        }
                    ],
                    "admitSource": {
                        "coding": [
                            {
                                "system": "urn:oid:1.2.840.114350.1.13.0.1.7.10.698084.10310",
                                "code": "2",
                                "display": "Physician or Clinic Office"
                            }
                        ],
                        "text": "Physician or Clinic Office"
                    }
                },
                "location": [
                    {
                        "location": {
                            "reference": "Location/etk-blkZr.2.mHyBW6isfhjiMf0FMRauHE.XP765i1rY3",
                            "display": "EMH Labor and Delivery"
                        },
                        "period": {
                            "start": "2024-07-21T14:55:00Z"
                        }
                    },
                    {
                        "location": {
                            "reference": "Location/eO-3e71xq6A5Xp7leBMrw5X-8sAl6UHIF91p7maQKFdU3",
                            "display": "EMH Medical Surgical"
                        }
                    },
                    {
                        "location": {
                            "reference": "Location/eQSOrLdbVrMRc68KBcTBG4A3",
                            "display": "Epic Hospital System"
                        }
                    },
                    {
                        "location": {
                            "reference": "Location/e-hopA68N.fD7IU7OExWLSg3",
                            "display": "MS Pool Room 2"
                        },
                        "physicalType": {
                            "coding": [
                                {
                                    "system": "http://terminology.hl7.org/CodeSystem/location-physical-type",
                                    "code": "ro",
                                    "display": "Room"
                                }
                            ],
                            "text": "Room"
                        }
                    },
                    {
                        "location": {
                            "identifier": {
                                "system": "urn:oid:1.2.840.114350.1.13.0.1.7.2.666968",
                                "value": "953"
                            },
                            "display": "MS Pool Bed"
                        },
                        "physicalType": {
                            "coding": [
                                {
                                    "system": "http://terminology.hl7.org/CodeSystem/location-physical-type",
                                    "code": "bd",
                                    "display": "Bed"
                                }
                            ],
                            "text": "Bed"
                        }
                    }
                ]
            },
            "search": {
                "mode": "include"
            }
        },
        {
            "link": [
                {
                    "relation": "self",
                    "url": "https://appmarket.epic.com/interconnect-amcurprd-oauth/api/FHIR/R4/Medication/eLSmw4.Hohw6Y.tKyg5VnVURrqlQDDQxU9028xighwRKuCXAlizHlxutpPmHErh.d3"
                }
            ],
            "fullUrl": "https://appmarket.epic.com/interconnect-amcurprd-oauth/api/FHIR/R4/Medication/eLSmw4.Hohw6Y.tKyg5VnVURrqlQDDQxU9028xighwRKuCXAlizHlxutpPmHErh.d3",
            "resource": {
                "resourceType": "Medication",
                "id": "eLSmw4.Hohw6Y.tKyg5VnVURrqlQDDQxU9028xighwRKuCXAlizHlxutpPmHErh.d3",
                "code": {
                    "coding": [
                        {
                            "system": "urn:oid:2.16.840.1.113883.6.253",
                            "code": "11708"
                        },
                        {
                            "system": "urn:oid:2.16.840.1.113883.6.68",
                            "code": "79992001202010"
                        },
                        {
                            "system": "urn:oid:2.16.840.1.113883.6.162",
                            "code": "06573"
                        },
                        {
                            "system": "http://www.nlm.nih.gov/research/umls/rxnorm",
                            "code": "1901"
                        },
                        {
                            "system": "http://www.nlm.nih.gov/research/umls/rxnorm",
                            "code": "8591"
                        },
                        {
                            "system": "http://www.nlm.nih.gov/research/umls/rxnorm",
                            "code": "9863"
                        },
                        {
                            "system": "http://www.nlm.nih.gov/research/umls/rxnorm",
                            "code": "114202"
                        },
                        {
                            "system": "http://www.nlm.nih.gov/research/umls/rxnorm",
                            "code": "847630"
                        },
                        {
                            "system": "http://www.nlm.nih.gov/research/umls/rxnorm",
                            "code": "1008377"
                        }
                    ],
                    "text": "lactated Ringer's infusion"
                },
                "form": {
                    "coding": [
                        {
                            "system": "urn:oid:1.2.840.114350.1.13.0.1.7.4.698288.310",
                            "code": "SOLN",
                            "display": "solution"
                        }
                    ],
                    "text": "solution"
                },
                "ingredient": [
                    {
                        "itemCodeableConcept": {
                            "coding": [
                                {
                                    "system": "urn:oid:2.16.840.1.113883.6.253",
                                    "code": "11708"
                                },
                                {
                                    "system": "urn:oid:2.16.840.1.113883.6.68",
                                    "code": "79992001202010"
                                },
                                {
                                    "system": "urn:oid:2.16.840.1.113883.6.162",
                                    "code": "06573"
                                },
                                {
                                    "system": "http://www.nlm.nih.gov/research/umls/rxnorm",
                                    "code": "1901"
                                },
                                {
                                    "system": "http://www.nlm.nih.gov/research/umls/rxnorm",
                                    "code": "8591"
                                },
                                {
                                    "system": "http://www.nlm.nih.gov/research/umls/rxnorm",
                                    "code": "9863"
                                },
                                {
                                    "system": "http://www.nlm.nih.gov/research/umls/rxnorm",
                                    "code": "114202"
                                },
                                {
                                    "system": "http://www.nlm.nih.gov/research/umls/rxnorm",
                                    "code": "847630"
                                },
                                {
                                    "system": "http://www.nlm.nih.gov/research/umls/rxnorm",
                                    "code": "1008377"
                                }
                            ],
                            "text": "lactated Ringer's infusion"
                        }
                    }
                ]
            },
            "search": {
                "mode": "include"
            }
        },
        {
            "link": [
                {
                    "relation": "self",
                    "url": "https://appmarket.epic.com/interconnect-amcurprd-oauth/api/FHIR/R4/Medication/eLu2VdOC6P5lcOo4zwFLXkRzY71SUSS9snN81rqY5bDejaxzxfRS27ZB5O32ajde53"
                }
            ],
            "fullUrl": "https://appmarket.epic.com/interconnect-amcurprd-oauth/api/FHIR/R4/Medication/eLu2VdOC6P5lcOo4zwFLXkRzY71SUSS9snN81rqY5bDejaxzxfRS27ZB5O32ajde53",
            "resource": {
                "resourceType": "Medication",
                "id": "eLu2VdOC6P5lcOo4zwFLXkRzY71SUSS9snN81rqY5bDejaxzxfRS27ZB5O32ajde53",
                "code": {
                    "coding": [
                        {
                            "system": "urn:oid:2.16.840.1.113883.6.253",
                            "code": "155874"
                        },
                        {
                            "system": "urn:oid:2.16.840.1.113883.6.68",
                            "code": "69100010102007"
                        },
                        {
                            "system": "urn:oid:2.16.840.1.113883.6.162",
                            "code": "69165"
                        },
                        {
                            "system": "http://www.nlm.nih.gov/research/umls/rxnorm",
                            "code": "1815"
                        },
                        {
                            "system": "http://www.nlm.nih.gov/research/umls/rxnorm",
                            "code": "267396"
                        },
                        {
                            "system": "http://www.nlm.nih.gov/research/umls/rxnorm",
                            "code": "1012396"
                        },
                        {
                            "system": "http://www.nlm.nih.gov/research/umls/rxnorm",
                            "code": "1725078"
                        },
                        {
                            "system": "http://www.nlm.nih.gov/research/umls/rxnorm",
                            "code": "1725082"
                        },
                        {
                            "system": "http://www.nlm.nih.gov/research/umls/rxnorm",
                            "code": "1725696"
                        },
                        {
                            "system": "http://www.nlm.nih.gov/research/umls/rxnorm",
                            "code": "1725702"
                        }
                    ],
                    "text": "bupivacaine PF (MARCAINE) injection 0.25%"
                },
                "form": {
                    "coding": [
                        {
                            "system": "urn:oid:1.2.840.114350.1.13.0.1.7.4.698288.310",
                            "code": "SOLN",
                            "display": "solution"
                        }
                    ],
                    "text": "solution"
                },
                "ingredient": [
                    {
                        "itemCodeableConcept": {
                            "coding": [
                                {
                                    "system": "urn:oid:2.16.840.1.113883.6.253",
                                    "code": "155874"
                                },
                                {
                                    "system": "urn:oid:2.16.840.1.113883.6.68",
                                    "code": "69100010102007"
                                },
                                {
                                    "system": "urn:oid:2.16.840.1.113883.6.162",
                                    "code": "69165"
                                },
                                {
                                    "system": "http://www.nlm.nih.gov/research/umls/rxnorm",
                                    "code": "1815"
                                },
                                {
                                    "system": "http://www.nlm.nih.gov/research/umls/rxnorm",
                                    "code": "267396"
                                },
                                {
                                    "system": "http://www.nlm.nih.gov/research/umls/rxnorm",
                                    "code": "1012396"
                                },
                                {
                                    "system": "http://www.nlm.nih.gov/research/umls/rxnorm",
                                    "code": "1725078"
                                },
                                {
                                    "system": "http://www.nlm.nih.gov/research/umls/rxnorm",
                                    "code": "1725082"
                                },
                                {
                                    "system": "http://www.nlm.nih.gov/research/umls/rxnorm",
                                    "code": "1725696"
                                },
                                {
                                    "system": "http://www.nlm.nih.gov/research/umls/rxnorm",
                                    "code": "1725702"
                                }
                            ],
                            "text": "bupivacaine PF (MARCAINE) injection 0.25%"
                        },
                        "strength": {
                            "numerator": {
                                "value": 0.25,
                                "unit": "%",
                                "system": "http://unitsofmeasure.org",
                                "code": "%"
                            },
                            "denominator": {
                                "value": 0.25,
                                "unit": "%",
                                "system": "http://unitsofmeasure.org",
                                "code": "%"
                            }
                        }
                    }
                ]
            },
            "search": {
                "mode": "include"
            }
        },
        {
            "link": [
                {
                    "relation": "self",
                    "url": "https://appmarket.epic.com/interconnect-amcurprd-oauth/api/FHIR/R4/Medication/eSE.lzw6WwR8RkK6lleDxF0MlQEB81gq11D8mP7ZxOnKi7i62sBQ-qrC9xfqjW5123"
                }
            ],
            "fullUrl": "https://appmarket.epic.com/interconnect-amcurprd-oauth/api/FHIR/R4/Medication/eSE.lzw6WwR8RkK6lleDxF0MlQEB81gq11D8mP7ZxOnKi7i62sBQ-qrC9xfqjW5123",
            "resource": {
                "resourceType": "Medication",
                "id": "eSE.lzw6WwR8RkK6lleDxF0MlQEB81gq11D8mP7ZxOnKi7i62sBQ-qrC9xfqjW5123",
                "code": {
                    "coding": [
                        {
                            "system": "urn:oid:2.16.840.1.113883.6.253",
                            "code": "4043"
                        },
                        {
                            "system": "urn:oid:2.16.840.1.113883.6.68",
                            "code": "02100015102115"
                        },
                        {
                            "system": "urn:oid:2.16.840.1.113883.6.162",
                            "code": "00136"
                        },
                        {
                            "system": "http://www.nlm.nih.gov/research/umls/rxnorm",
                            "code": "2180"
                        },
                        {
                            "system": "http://www.nlm.nih.gov/research/umls/rxnorm",
                            "code": "203171"
                        },
                        {
                            "system": "http://www.nlm.nih.gov/research/umls/rxnorm",
                            "code": "1665050"
                        }
                    ],
                    "text": "ceFAZolin (ANCEF) vial 1 g"
                },
                "form": {
                    "coding": [
                        {
                            "system": "urn:oid:1.2.840.114350.1.13.0.1.7.4.698288.310",
                            "code": "SOLR",
                            "display": "reconstituted solution"
                        }
                    ],
                    "text": "reconstituted solution"
                },
                "ingredient": [
                    {
                        "itemCodeableConcept": {
                            "coding": [
                                {
                                    "system": "urn:oid:2.16.840.1.113883.6.253",
                                    "code": "4043"
                                },
                                {
                                    "system": "urn:oid:2.16.840.1.113883.6.68",
                                    "code": "02100015102115"
                                },
                                {
                                    "system": "urn:oid:2.16.840.1.113883.6.162",
                                    "code": "00136"
                                },
                                {
                                    "system": "http://www.nlm.nih.gov/research/umls/rxnorm",
                                    "code": "2180"
                                },
                                {
                                    "system": "http://www.nlm.nih.gov/research/umls/rxnorm",
                                    "code": "203171"
                                },
                                {
                                    "system": "http://www.nlm.nih.gov/research/umls/rxnorm",
                                    "code": "1665050"
                                }
                            ],
                            "text": "ceFAZolin (ANCEF) vial 1 g"
                        },
                        "strength": {
                            "numerator": {
                                "value": 1,
                                "unit": "GM",
                                "system": "http://unitsofmeasure.org",
                                "code": "g"
                            },
                            "denominator": {
                                "value": 1,
                                "unit": "GM",
                                "system": "http://unitsofmeasure.org",
                                "code": "g"
                            }
                        }
                    }
                ]
            },
            "search": {
                "mode": "include"
            }
        },
        {
            "link": [
                {
                    "relation": "self",
                    "url": "https://appmarket.epic.com/interconnect-amcurprd-oauth/api/FHIR/R4/Medication/eWCOOhuY7VrJRnwGlY6ZUH7iOySl98J5-vN9y4PPrdJWehOcUkorjwnnmtkvqXyBO3"
                }
            ],
            "fullUrl": "https://appmarket.epic.com/interconnect-amcurprd-oauth/api/FHIR/R4/Medication/eWCOOhuY7VrJRnwGlY6ZUH7iOySl98J5-vN9y4PPrdJWehOcUkorjwnnmtkvqXyBO3",
            "resource": {
                "resourceType": "Medication",
                "id": "eWCOOhuY7VrJRnwGlY6ZUH7iOySl98J5-vN9y4PPrdJWehOcUkorjwnnmtkvqXyBO3",
                "code": {
                    "coding": [
                        {
                            "system": "urn:oid:2.16.840.1.113883.6.253",
                            "code": "16002"
                        },
                        {
                            "system": "urn:oid:2.16.840.1.113883.6.68",
                            "code": "29000030002005"
                        },
                        {
                            "system": "urn:oid:2.16.840.1.113883.6.162",
                            "code": "00990"
                        },
                        {
                            "system": "http://www.nlm.nih.gov/research/umls/rxnorm",
                            "code": "7824"
                        },
                        {
                            "system": "http://www.nlm.nih.gov/research/umls/rxnorm",
                            "code": "238013"
                        },
                        {
                            "system": "http://www.nlm.nih.gov/research/umls/rxnorm",
                            "code": "1791721"
                        }
                    ],
                    "text": "oxytocin (PITOCIN) injection"
                },
                "form": {
                    "coding": [
                        {
                            "system": "urn:oid:1.2.840.114350.1.13.0.1.7.4.698288.310",
                            "code": "SOLN",
                            "display": "solution"
                        }
                    ],
                    "text": "solution"
                },
                "ingredient": [
                    {
                        "itemCodeableConcept": {
                            "coding": [
                                {
                                    "system": "urn:oid:2.16.840.1.113883.6.253",
                                    "code": "16002"
                                },
                                {
                                    "system": "urn:oid:2.16.840.1.113883.6.68",
                                    "code": "29000030002005"
                                },
                                {
                                    "system": "urn:oid:2.16.840.1.113883.6.162",
                                    "code": "00990"
                                },
                                {
                                    "system": "http://www.nlm.nih.gov/research/umls/rxnorm",
                                    "code": "7824"
                                },
                                {
                                    "system": "http://www.nlm.nih.gov/research/umls/rxnorm",
                                    "code": "238013"
                                },
                                {
                                    "system": "http://www.nlm.nih.gov/research/umls/rxnorm",
                                    "code": "1791721"
                                }
                            ],
                            "text": "oxytocin (PITOCIN) injection"
                        },
                        "strength": {
                            "numerator": {
                                "value": 10,
                                "unit": "UNIT/ML"
                            },
                            "denominator": {
                                "value": 10,
                                "unit": "UNIT/ML"
                            }
                        }
                    }
                ]
            },
            "search": {
                "mode": "include"
            }
        },
        {
            "link": [
                {
                    "relation": "self",
                    "url": "https://appmarket.epic.com/interconnect-amcurprd-oauth/api/FHIR/R4/Medication/ehE6DK7mjLRc1FUvWb3oOp1safUlLSCDdGctqCsDMXV8xjU0lu3p3eOprO3Nr6t2b3"
                }
            ],
            "fullUrl": "https://appmarket.epic.com/interconnect-amcurprd-oauth/api/FHIR/R4/Medication/ehE6DK7mjLRc1FUvWb3oOp1safUlLSCDdGctqCsDMXV8xjU0lu3p3eOprO3Nr6t2b3",
            "resource": {
                "resourceType": "Medication",
                "id": "ehE6DK7mjLRc1FUvWb3oOp1safUlLSCDdGctqCsDMXV8xjU0lu3p3eOprO3Nr6t2b3",
                "code": {
                    "coding": [
                        {
                            "system": "urn:oid:2.16.840.1.113883.6.253",
                            "code": "12078"
                        },
                        {
                            "system": "urn:oid:2.16.840.1.113883.6.68",
                            "code": "69100040102010"
                        },
                        {
                            "system": "urn:oid:2.16.840.1.113883.6.162",
                            "code": "03783"
                        },
                        {
                            "system": "http://www.nlm.nih.gov/research/umls/rxnorm",
                            "code": "6387"
                        },
                        {
                            "system": "http://www.nlm.nih.gov/research/umls/rxnorm",
                            "code": "142440"
                        },
                        {
                            "system": "http://www.nlm.nih.gov/research/umls/rxnorm",
                            "code": "1010033"
                        },
                        {
                            "system": "http://www.nlm.nih.gov/research/umls/rxnorm",
                            "code": "1737566"
                        },
                        {
                            "system": "http://www.nlm.nih.gov/research/umls/rxnorm",
                            "code": "1737570"
                        }
                    ],
                    "text": "lidocaine (XYLOCAINE) injection 1%"
                },
                "form": {
                    "coding": [
                        {
                            "system": "urn:oid:1.2.840.114350.1.13.0.1.7.4.698288.310",
                            "code": "SOLN",
                            "display": "solution"
                        }
                    ],
                    "text": "solution"
                },
                "ingredient": [
                    {
                        "itemCodeableConcept": {
                            "coding": [
                                {
                                    "system": "urn:oid:2.16.840.1.113883.6.253",
                                    "code": "12078"
                                },
                                {
                                    "system": "urn:oid:2.16.840.1.113883.6.68",
                                    "code": "69100040102010"
                                },
                                {
                                    "system": "urn:oid:2.16.840.1.113883.6.162",
                                    "code": "03783"
                                },
                                {
                                    "system": "http://www.nlm.nih.gov/research/umls/rxnorm",
                                    "code": "6387"
                                },
                                {
                                    "system": "http://www.nlm.nih.gov/research/umls/rxnorm",
                                    "code": "142440"
                                },
                                {
                                    "system": "http://www.nlm.nih.gov/research/umls/rxnorm",
                                    "code": "1010033"
                                },
                                {
                                    "system": "http://www.nlm.nih.gov/research/umls/rxnorm",
                                    "code": "1737566"
                                },
                                {
                                    "system": "http://www.nlm.nih.gov/research/umls/rxnorm",
                                    "code": "1737570"
                                }
                            ],
                            "text": "lidocaine (XYLOCAINE) injection 1%"
                        },
                        "strength": {
                            "numerator": {
                                "value": 1,
                                "unit": "%",
                                "system": "http://unitsofmeasure.org",
                                "code": "%"
                            },
                            "denominator": {
                                "value": 1,
                                "unit": "%",
                                "system": "http://unitsofmeasure.org",
                                "code": "%"
                            }
                        }
                    }
                ]
            },
            "search": {
                "mode": "include"
            }
        },
        {
            "link": [
                {
                    "relation": "self",
                    "url": "https://appmarket.epic.com/interconnect-amcurprd-oauth/api/FHIR/R4/Medication/erPDTHR6K2WA2zNgYrjQmN1sBVv9OGQlFQtaBN8XxGxowk8IQgmSF5.c7GjN.w0j83"
                }
            ],
            "fullUrl": "https://appmarket.epic.com/interconnect-amcurprd-oauth/api/FHIR/R4/Medication/erPDTHR6K2WA2zNgYrjQmN1sBVv9OGQlFQtaBN8XxGxowk8IQgmSF5.c7GjN.w0j83",
            "resource": {
                "resourceType": "Medication",
                "id": "erPDTHR6K2WA2zNgYrjQmN1sBVv9OGQlFQtaBN8XxGxowk8IQgmSF5.c7GjN.w0j83",
                "code": {
                    "coding": [
                        {
                            "system": "urn:oid:2.16.840.1.113883.6.253",
                            "code": "160719"
                        },
                        {
                            "system": "urn:oid:2.16.840.1.113883.6.68",
                            "code": "50250065052024"
                        },
                        {
                            "system": "urn:oid:2.16.840.1.113883.6.162",
                            "code": "71969"
                        },
                        {
                            "system": "http://www.nlm.nih.gov/research/umls/rxnorm",
                            "code": "26225"
                        },
                        {
                            "system": "http://www.nlm.nih.gov/research/umls/rxnorm",
                            "code": "203148"
                        },
                        {
                            "system": "http://www.nlm.nih.gov/research/umls/rxnorm",
                            "code": "283504"
                        },
                        {
                            "system": "http://www.nlm.nih.gov/research/umls/rxnorm",
                            "code": "1314133"
                        },
                        {
                            "system": "http://www.nlm.nih.gov/research/umls/rxnorm",
                            "code": "1740467"
                        },
                        {
                            "system": "http://www.nlm.nih.gov/research/umls/rxnorm",
                            "code": "2119176"
                        }
                    ],
                    "text": "ondansetron (ZOFRAN) 2 mg/mL injection"
                },
                "form": {
                    "coding": [
                        {
                            "system": "urn:oid:1.2.840.114350.1.13.0.1.7.4.698288.310",
                            "code": "SOLN",
                            "display": "solution"
                        }
                    ],
                    "text": "solution"
                },
                "ingredient": [
                    {
                        "itemCodeableConcept": {
                            "coding": [
                                {
                                    "system": "urn:oid:2.16.840.1.113883.6.253",
                                    "code": "160719"
                                },
                                {
                                    "system": "urn:oid:2.16.840.1.113883.6.68",
                                    "code": "50250065052024"
                                },
                                {
                                    "system": "urn:oid:2.16.840.1.113883.6.162",
                                    "code": "71969"
                                },
                                {
                                    "system": "http://www.nlm.nih.gov/research/umls/rxnorm",
                                    "code": "26225"
                                },
                                {
                                    "system": "http://www.nlm.nih.gov/research/umls/rxnorm",
                                    "code": "203148"
                                },
                                {
                                    "system": "http://www.nlm.nih.gov/research/umls/rxnorm",
                                    "code": "283504"
                                },
                                {
                                    "system": "http://www.nlm.nih.gov/research/umls/rxnorm",
                                    "code": "1314133"
                                },
                                {
                                    "system": "http://www.nlm.nih.gov/research/umls/rxnorm",
                                    "code": "1740467"
                                },
                                {
                                    "system": "http://www.nlm.nih.gov/research/umls/rxnorm",
                                    "code": "2119176"
                                }
                            ],
                            "text": "ondansetron (ZOFRAN) 2 mg/mL injection"
                        },
                        "strength": {
                            "numerator": {
                                "value": 4,
                                "unit": "MG/2ML"
                            },
                            "denominator": {
                                "value": 4,
                                "unit": "MG/2ML"
                            }
                        }
                    }
                ]
            },
            "search": {
                "mode": "include"
            }
        },
        {
            "link": [
                {
                    "relation": "self",
                    "url": "https://appmarket.epic.com/interconnect-amcurprd-oauth/api/FHIR/R4/Patient/eyhVLfVSOgL54Y.-UH2H5nw3"
                }
            ],
            "fullUrl": "https://appmarket.epic.com/interconnect-amcurprd-oauth/api/FHIR/R4/Patient/eyhVLfVSOgL54Y.-UH2H5nw3",
            "resource": {
                "resourceType": "Patient",
                "id": "eyhVLfVSOgL54Y.-UH2H5nw3",
                "extension": [
                    {
                        "extension": [
                            {
                                "valueCoding": {
                                    "system": "urn:oid:2.16.840.1.113883.6.238",
                                    "code": "2106-3",
                                    "display": "White"
                                },
                                "url": "ombCategory"
                            },
                            {
                                "valueString": "White",
                                "url": "text"
                            }
                        ],
                        "url": "http://hl7.org/fhir/us/core/StructureDefinition/us-core-race"
                    },
                    {
                        "extension": [
                            {
                                "valueCoding": {
                                    "system": "urn:oid:2.16.840.1.113883.6.238",
                                    "code": "2186-5",
                                    "display": "Not Hispanic or Latino"
                                },
                                "url": "ombCategory"
                            },
                            {
                                "valueString": "Not Hispanic or Latino",
                                "url": "text"
                            }
                        ],
                        "url": "http://hl7.org/fhir/us/core/StructureDefinition/us-core-ethnicity"
                    },
                    {
                        "valueCodeableConcept": {
                            "coding": [
                                {
                                    "system": "urn:oid:1.2.840.114350.1.13.0.1.7.10.698084.130.657370.19999000",
                                    "code": "female",
                                    "display": "female"
                                }
                            ]
                        },
                        "url": "http://open.epic.com/FHIR/StructureDefinition/extension/legal-sex"
                    },
                    {
                        "valueCodeableConcept": {
                            "coding": [
                                {
                                    "system": "urn:oid:1.2.840.114350.1.13.0.1.7.10.698084.130.657370.19999000",
                                    "code": "female",
                                    "display": "female"
                                }
                            ]
                        },
                        "url": "http://open.epic.com/FHIR/StructureDefinition/extension/sex-for-clinical-use"
                    },
                    {
                        "valueCode": "F",
                        "url": "http://hl7.org/fhir/us/core/StructureDefinition/us-core-birthsex"
                    }
                ],
                "identifier": [
                    {
                        "use": "usual",
                        "system": "urn:oid:2.16.840.1.113883.4.1",
                        "value": "767-11-5210"
                    },
                    {
                        "use": "usual",
                        "type": {
                            "text": "CEID"
                        },
                        "system": "urn:epic:apporchard.curprod",
                        "value": "AO1M8J29PK3ZTPK"
                    },
                    {
                        "use": "usual",
                        "type": {
                            "text": "EPIC"
                        },
                        "system": "urn:oid:1.2.840.114350.1.1",
                        "value": "E7370"
                    },
                    {
                        "use": "usual",
                        "type": {
                            "text": "EXTERNAL"
                        },
                        "system": "urn:oid:1.2.840.114350.1.13.0.1.7.2.698084",
                        "value": "Z6023"
                    },
                    {
                        "use": "usual",
                        "type": {
                            "text": "FHIR"
                        },
                        "system": "http://open.epic.com/FHIR/StructureDefinition/patient-dstu2-fhir-id",
                        "value": "TuzQ2.nCkkzc0f528wbuaE5-TUtUzFk9co.nzPXxeYdUB"
                    },
                    {
                        "use": "usual",
                        "type": {
                            "text": "FHIR STU3"
                        },
                        "system": "http://open.epic.com/FHIR/StructureDefinition/patient-fhir-id",
                        "value": "eyhVLfVSOgL54Y.-UH2H5nw3"
                    },
                    {
                        "use": "usual",
                        "type": {
                            "text": "INTERNAL"
                        },
                        "system": "urn:oid:1.2.840.114350.1.13.0.1.7.2.698084",
                        "value": "     Z6023"
                    },
                    {
                        "use": "usual",
                        "type": {
                            "text": "MRN"
                        },
                        "system": "urn:oid:1.2.840.114350.1.13.0.1.7.5.737384.14",
                        "value": "207016"
                    }
                ],
                "active": true,
                "name": [
                    {
                        "use": "official",
                        "text": "Quinn OpTime Quahog",
                        "family": "Quahog",
                        "given": [
                            "Quinn",
                            "OpTime"
                        ]
                    },
                    {
                        "use": "usual",
                        "text": "Quinn OpTime Quahog",
                        "family": "Quahog",
                        "given": [
                            "Quinn",
                            "OpTime"
                        ]
                    }
                ],
                "telecom": [
                    {
                        "system": "phone",
                        "value": "608-271-9000",
                        "use": "home"
                    }
                ],
                "gender": "female",
                "birthDate": "1995-12-07",
                "deceasedBoolean": false,
                "address": [
                    {
                        "use": "home",
                        "line": [
                            "1979 Milky Way"
                        ],
                        "city": "VERONA",
                        "district": "DANE",
                        "state": "WI",
                        "postalCode": "53593",
                        "country": "US"
                    }
                ],
                "maritalStatus": {
                    "text": "Married"
                },
                "communication": [
                    {
                        "language": {
                            "coding": [
                                {
                                    "system": "urn:ietf:bcp:47",
                                    "code": "en",
                                    "display": "English"
                                }
                            ],
                            "text": "English"
                        },
                        "preferred": true
                    }
                ],
                "managingOrganization": {
                    "reference": "Organization/enRyWnSP963FYDpoks4NHOA3",
                    "display": "Epic Hospital System"
                }
            },
            "search": {
                "mode": "include"
            }
        }
    ]
}