{
    "resourceType": "Bundle",
    "type": "searchset",
    "total": 12,
    "link": [
        {
            "relation": "self",
            "url": "https://appmarket.epic.com/interconnect-amcurprd-oauth/api/FHIR/R4/MedicationRequest?_include=MedicationRequest:medicationReference&_include=MedicationRequest:encounter&_include=MedicationRequest:subject&_format=json&patient=e8rw6-eNHWZjkKDLa4Ai6qQ3"
        }
    ],
    "entry": [
        {
            "link": [
                {
                    "relation": "self",
                    "url": "https://appmarket.epic.com/interconnect-amcurprd-oauth/api/FHIR/R4/MedicationRequest/e1YlUfDVwwJnA.J3nEhQ-Dg3"
                }
            ],
            "fullUrl": "https://appmarket.epic.com/interconnect-amcurprd-oauth/api/FHIR/R4/MedicationRequest/e1YlUfDVwwJnA.J3nEhQ-Dg3",
            "resource": {
                "resourceType": "MedicationRequest",
                "id": "e1YlUfDVwwJnA.J3nEhQ-Dg3",
                "identifier": [
                    {
                        "use": "usual",
                        "system": "urn:oid:1.2.840.114350.1.13.0.1.7.2.798268",
                        "value": "956396"
                    }
                ],
                "status": "stopped",
                "intent": "order",
                "category": [
                    {
                        "coding": [
                            {
                                "system": "http://terminology.hl7.org/CodeSystem/medicationrequest-category",
                                "code": "community",
                                "display": "Community"
                            }
                        ],
                        "text": "Community"
                    }
                ],
                "medicationReference": {
                    "reference": "Medication/eZqObtEC4Ysw2NAIIUEbtqwBpfe6wryDBPqzR2LOlC1UmD91EfTh-LM1ujTzrxY.F3",
                    "display": "furosemide (LASIX) tablet"
                },
                "subject": {
                    "reference": "Patient/e8rw6-eNHWZjkKDLa4Ai6qQ3",
                    "display": "Heart, Herman D"
                },
                "encounter": {
                    "reference": "Encounter/enMmZaCrwooJ4TyQ3tnZliQ3",
                    "identifier": {
                        "use": "usual",
                        "system": "urn:oid:1.2.840.114350.1.13.0.1.7.3.698084.8",
                        "value": "15852"
                    },
                    "display": "Office Visit"
                },
                "authoredOn": "2013-12-16",
                "requester": {
                    "reference": "Practitioner/eM5CWtq15N0WJeuCet5bJlQ3",
                    "type": "Practitioner",
                    "display": "Physician Family Medicine, MD"
                },
                "recorder": {
                    "reference": "Practitioner/eM5CWtq15N0WJeuCet5bJlQ3",
                    "type": "Practitioner",
                    "display": "Physician Family Medicine, MD"
                },
                "courseOfTherapyType": {
                    "coding": [
                        {
                            "system": "http://terminology.hl7.org/CodeSystem/medicationrequest-course-of-therapy",
                            "code": "acute",
                            "display": "Short course (acute) therapy"
                        }
                    ],
                    "text": "Short course (acute) therapy"
                },
                "dosageInstruction": [
                    {
                        "text": "Take 1 tablet (20 mg total) by mouth 3 (three) times a day., Starting 12/16/2013, Until Discontinued, Normal",
                        "patientInstruction": "Take 1 tablet (20 mg total) by mouth 3 (three) times a day.",
                        "timing": {
                            "repeat": {
                                "boundsPeriod": {
                                    "start": "2013-12-16",
                                    "end": "2015-10-02"
                                },
                                "timeOfDay": [
                                    "09:00:00",
                                    "16:00:00",
                                    "21:00:00"
                                ]
                            },
                            "code": {
                                "text": "0900, 1600, 2100"
                            }
                        },
                        "asNeededBoolean": false,
                        "route": {
                            "coding": [
                                {
                                    "system": "http://snomed.info/sct",
                                    "code": "260548002",
                                    "display": "Oral (qualifier value)"
                                },
                                {
                                    "system": "urn:oid:1.2.840.114350.1.13.0.1.7.4.798268.7025",
                                    "code": "15",
                                    "display": "Oral"
                                }
                            ],
                            "text": "Oral"
                        },
                        "doseAndRate": [
                            {
                                "type": {
                                    "coding": [
                                        {
                                            "system": "http://epic.com/CodeSystem/dose-rate-type",
                                            "code": "calculated",
                                            "display": "calculated"
                                        }
                                    ],
                                    "text": "calculated"
                                },
                                "doseQuantity": {
                                    "value": 20,
                                    "unit": "mg",
                                    "system": "http://unitsofmeasure.org",
                                    "code": "mg"
                                }
                            },
                            {
                                "type": {
                                    "coding": [
                                        {
                                            "system": "http://epic.com/CodeSystem/dose-rate-type",
                                            "code": "admin-amount",
                                            "display": "admin-amount"
                                        }
                                    ],
                                    "text": "admin-amount"
                                },
                                "doseQuantity": {
                                    "value": 1,
                                    "unit": "tablet",
                                    "system": "http://unitsofmeasure.org",
                                    "code": "{tbl}"
                                }
                            },
                            {
                                "type": {
                                    "coding": [
                                        {
                                            "system": "http://epic.com/CodeSystem/dose-rate-type",
                                            "code": "ordered",
                                            "display": "ordered"
                                        }
                                    ],
                                    "text": "ordered"
                                },
                                "doseQuantity": {
                                    "value": 20,
                                    "unit": "mg",
                                    "system": "http://unitsofmeasure.org",
                                    "code": "mg"
                                }
                            }
                        ]
                    }
                ],
                "dispenseRequest": {
                    "validityPeriod": {
                        "start": "2013-12-16",
                        "end": "2015-10-02"
                    },
                    "numberOfRepeatsAllowed": 3,
                    "quantity": {
                        "value": 90,
                        "unit": "tablet"
                    },
                    "expectedSupplyDuration": {
                        "value": 30,
                        "unit": "Day",
                        "system": "http://unitsofmeasure.org",
                        "code": "d"
                    }
                },
                "priorPrescription": {
                    "reference": "MedicationRequest/etfkPKDsfwxOk39aJXVCCJA3",
                    "display": "furosemide (LASIX) 20 MG tablet"
                }
            },
            "search": {
                "mode": "match"
            }
        },
        {
            "link": [
                {
                    "relation": "self",
                    "url": "https://appmarket.epic.com/interconnect-amcurprd-oauth/api/FHIR/R4/MedicationRequest/eElDfeLctFnRcv5ROj-FzWA3"
                }
            ],
            "fullUrl": "https://appmarket.epic.com/interconnect-amcurprd-oauth/api/FHIR/R4/MedicationRequest/eElDfeLctFnRcv5ROj-FzWA3",
            "resource": {
                "resourceType": "MedicationRequest",
                "id": "eElDfeLctFnRcv5ROj-FzWA3",
                "identifier": [
                    {
                        "use": "usual",
                        "system": "urn:oid:1.2.840.114350.1.13.0.1.7.2.798268",
                        "value": "956399"
                    }
                ],
                "status": "stopped",
                "intent": "order",
                "category": [
                    {
                        "coding": [
                            {
                                "system": "http://terminology.hl7.org/CodeSystem/medicationrequest-category",
                                "code": "community",
                                "display": "Community"
                            }
                        ],
                        "text": "Community"
                    }
                ],
                "medicationReference": {
                    "reference": "Medication/enKmjUPhmNIu0.qGUhgWft6hK8G93j5ELpg.ClnXdLyBMJKIWAafI8quIdhd9e2U83",
                    "display": "propranolol (INDERAL) tablet"
                },
                "subject": {
                    "reference": "Patient/e8rw6-eNHWZjkKDLa4Ai6qQ3",
                    "display": "Heart, Herman D"
                },
                "encounter": {
                    "reference": "Encounter/eyhxQE.UgVO28JKTzSoTXlw3",
                    "identifier": {
                        "use": "usual",
                        "system": "urn:oid:1.2.840.114350.1.13.0.1.7.3.698084.8",
                        "value": "15850"
                    },
                    "display": "Office Visit"
                },
                "authoredOn": "2013-06-17",
                "requester": {
                    "reference": "Practitioner/ef9TegF2nfECi-0Skirbvpg3",
                    "type": "Practitioner",
                    "display": "Physician One Cardiology, MD"
                },
                "recorder": {
                    "reference": "Practitioner/ef9TegF2nfECi-0Skirbvpg3",
                    "type": "Practitioner",
                    "display": "Physician One Cardiology, MD"
                },
                "courseOfTherapyType": {
                    "coding": [
                        {
                            "system": "http://terminology.hl7.org/CodeSystem/medicationrequest-course-of-therapy",
                            "code": "acute",
                            "display": "Short course (acute) therapy"
                        }
                    ],
                    "text": "Short course (acute) therapy"
                },
                "dosageInstruction": [
                    {
                        "text": "Take 1 tablet (20 mg total) by mouth 3 (three) times a day., Starting Mon 6/17/2013, Until Mon 12/16/2013, Normal",
                        "patientInstruction": "Take 1 tablet (20 mg total) by mouth 3 (three) times a day.",
                        "timing": {
                            "repeat": {
                                "boundsPeriod": {
                                    "start": "2013-06-17",
                                    "end": "2013-12-16"
                                },
                                "count": 546,
                                "timeOfDay": [
                                    "09:00:00",
                                    "16:00:00",
                                    "21:00:00"
                                ]
                            },
                            "code": {
                                "text": "0900, 1600, 2100"
                            }
                        },
                        "asNeededBoolean": false,
                        "route": {
                            "coding": [
                                {
                                    "system": "http://snomed.info/sct",
                                    "code": "260548002",
                                    "display": "Oral (qualifier value)"
                                },
                                {
                                    "system": "urn:oid:1.2.840.114350.1.13.0.1.7.4.798268.7025",
                                    "code": "15",
                                    "display": "Oral"
                                }
                            ],
                            "text": "Oral"
                        },
                        "doseAndRate": [
                            {
                                "type": {
                                    "coding": [
                                        {
                                            "system": "http://epic.com/CodeSystem/dose-rate-type",
                                            "code": "calculated",
                                            "display": "calculated"
                                        }
                                    ],
                                    "text": "calculated"
                                },
                                "doseQuantity": {
                                    "value": 20,
                                    "unit": "mg",
                                    "system": "http://unitsofmeasure.org",
                                    "code": "mg"
                                }
                            },
                            {
                                "type": {
                                    "coding": [
                                        {
                                            "system": "http://epic.com/CodeSystem/dose-rate-type",
                                            "code": "admin-amount",
                                            "display": "admin-amount"
                                        }
                                    ],
                                    "text": "admin-amount"
                                },
                                "doseQuantity": {
                                    "value": 1,
                                    "unit": "tablet",
                                    "system": "http://unitsofmeasure.org",
                                    "code": "{tbl}"
                                }
                            },
                            {
                                "type": {
                                    "coding": [
                                        {
                                            "system": "http://epic.com/CodeSystem/dose-rate-type",
                                            "code": "ordered",
                                            "display": "ordered"
                                        }
                                    ],
                                    "text": "ordered"
                                },
                                "doseQuantity": {
                                    "value": 20,
                                    "unit": "mg",
                                    "system": "http://unitsofmeasure.org",
                                    "code": "mg"
                                }
                            }
                        ]
                    }
                ],
                "dispenseRequest": {
                    "validityPeriod": {
                        "start": "2013-06-17",
                        "end": "2013-12-16"
                    },
                    "numberOfRepeatsAllowed": 3,
                    "quantity": {
                        "value": 90,
                        "unit": "tablet"
                    },
                    "expectedSupplyDuration": {
                        "value": 30,
                        "unit": "Day",
                        "system": "http://unitsofmeasure.org",
                        "code": "d"
                    }
                },
                "priorPrescription": {
                    "reference": "MedicationRequest/ebmKWdbYaygoJqGDf.2IIQw3",
                    "display": "propranolol (INDERAL) 20 MG tablet"
                }
            },
            "search": {
                "mode": "match"
            }
        },
        {
            "link": [
                {
                    "relation": "self",
                    "url": "https://appmarket.epic.com/interconnect-amcurprd-oauth/api/FHIR/R4/MedicationRequest/eJXskn39-4HtxbeaDK4Pafw3"
                }
            ],
            "fullUrl": "https://appmarket.epic.com/interconnect-amcurprd-oauth/api/FHIR/R4/MedicationRequest/eJXskn39-4HtxbeaDK4Pafw3",
            "resource": {
                "resourceType": "MedicationRequest",
                "id": "eJXskn39-4HtxbeaDK4Pafw3",
                "identifier": [
                    {
                        "use": "usual",
                        "system": "urn:oid:1.2.840.114350.1.13.0.1.7.2.798268",
                        "value": "963759"
                    }
                ],
                "status": "stopped",
                "intent": "order",
                "category": [
                    {
                        "coding": [
                            {
                                "system": "http://terminology.hl7.org/CodeSystem/medicationrequest-category",
                                "code": "community",
                                "display": "Community"
                            }
                        ],
                        "text": "Community"
                    }
                ],
                "medicationReference": {
                    "reference": "Medication/eZqObtEC4Ysw2NAIIUEbtq.W2O7lJw.rx.BH.OexcfjPVl2-k.A98XiZJkNeeRupV3",
                    "display": "furosemide (LASIX) tablet"
                },
                "subject": {
                    "reference": "Patient/e8rw6-eNHWZjkKDLa4Ai6qQ3",
                    "display": "Heart, Herman D"
                },
                "encounter": {
                    "reference": "Encounter/ep8OcNycSaLAQhzINFqneaw3",
                    "identifier": {
                        "use": "usual",
                        "system": "urn:oid:1.2.840.114350.1.13.0.1.7.3.698084.8",
                        "value": "19129"
                    },
                    "display": "Office Visit"
                },
                "authoredOn": "2013-03-06",
                "requester": {
                    "reference": "Practitioner/ef9TegF2nfECi-0Skirbvpg3",
                    "type": "Practitioner",
                    "display": "Physician One Cardiology, MD"
                },
                "recorder": {
                    "reference": "Practitioner/ef9TegF2nfECi-0Skirbvpg3",
                    "type": "Practitioner",
                    "display": "Physician One Cardiology, MD"
                },
                "courseOfTherapyType": {
                    "coding": [
                        {
                            "system": "http://terminology.hl7.org/CodeSystem/medicationrequest-course-of-therapy",
                            "code": "acute",
                            "display": "Short course (acute) therapy"
                        }
                    ],
                    "text": "Short course (acute) therapy"
                },
                "dosageInstruction": [
                    {
                        "text": "Take 1 tablet (20 mg total) by mouth 3 (three) times a day., Starting Wed 3/6/2013, Until Wed 9/4/2013, Normal",
                        "patientInstruction": "Take 1 tablet (20 mg total) by mouth 3 (three) times a day.",
                        "timing": {
                            "repeat": {
                                "boundsPeriod": {
                                    "start": "2013-03-06",
                                    "end": "2013-09-04"
                                },
                                "count": 546,
                                "timeOfDay": [
                                    "09:00:00",
                                    "16:00:00",
                                    "21:00:00"
                                ]
                            },
                            "code": {
                                "text": "0900, 1600, 2100"
                            }
                        },
                        "asNeededBoolean": false,
                        "route": {
                            "coding": [
                                {
                                    "system": "http://snomed.info/sct",
                                    "code": "260548002",
                                    "display": "Oral (qualifier value)"
                                },
                                {
                                    "system": "urn:oid:1.2.840.114350.1.13.0.1.7.4.798268.7025",
                                    "code": "15",
                                    "display": "Oral"
                                }
                            ],
                            "text": "Oral"
                        },
                        "doseAndRate": [
                            {
                                "type": {
                                    "coding": [
                                        {
                                            "system": "http://epic.com/CodeSystem/dose-rate-type",
                                            "code": "calculated",
                                            "display": "calculated"
                                        }
                                    ],
                                    "text": "calculated"
                                },
                                "doseQuantity": {
                                    "value": 20,
                                    "unit": "mg",
                                    "system": "http://unitsofmeasure.org",
                                    "code": "mg"
                                }
                            },
                            {
                                "type": {
                                    "coding": [
                                        {
                                            "system": "http://epic.com/CodeSystem/dose-rate-type",
                                            "code": "admin-amount",
                                            "display": "admin-amount"
                                        }
                                    ],
                                    "text": "admin-amount"
                                },
                                "doseQuantity": {
                                    "value": 1,
                                    "unit": "tablet",
                                    "system": "http://unitsofmeasure.org",
                                    "code": "{tbl}"
                                }
                            },
                            {
                                "type": {
                                    "coding": [
                                        {
                                            "system": "http://epic.com/CodeSystem/dose-rate-type",
                                            "code": "ordered",
                                            "display": "ordered"
                                        }
                                    ],
                                    "text": "ordered"
                                },
                                "doseQuantity": {
                                    "value": 20,
                                    "unit": "mg",
                                    "system": "http://unitsofmeasure.org",
                                    "code": "mg"
                                }
                            }
                        ]
                    }
                ],
                "dispenseRequest": {
                    "validityPeriod": {
                        "start": "2013-03-06",
                        "end": "2013-09-04"
                    },
                    "numberOfRepeatsAllowed": 3,
                    "quantity": {
                        "value": 90,
                        "unit": "tablet"
                    },
                    "expectedSupplyDuration": {
                        "value": 30,
                        "unit": "Day",
                        "system": "http://unitsofmeasure.org",
                        "code": "d"
                    }
                },
                "priorPrescription": {
                    "reference": "MedicationRequest/eLSzv5qtbDIhWluD9Vd15bw3",
                    "display": "furosemide (LASIX) 20 MG tablet"
                }
            },
            "search": {
                "mode": "match"
            }
        },
        {
            "link": [
                {
                    "relation": "self",
                    "url": "https://appmarket.epic.com/interconnect-amcurprd-oauth/api/FHIR/R4/MedicationRequest/eLSzv5qtbDIhWluD9Vd15bw3"
                }
            ],
            "fullUrl": "https://appmarket.epic.com/interconnect-amcurprd-oauth/api/FHIR/R4/MedicationRequest/eLSzv5qtbDIhWluD9Vd15bw3",
            "resource": {
                "resourceType": "MedicationRequest",
                "id": "eLSzv5qtbDIhWluD9Vd15bw3",
                "identifier": [
                    {
                        "use": "usual",
                        "system": "urn:oid:1.2.840.114350.1.13.0.1.7.2.798268",
                        "value": "963756"
                    }
                ],
                "status": "stopped",
                "intent": "plan",
                "category": [
                    {
                        "coding": [
                            {
                                "system": "http://terminology.hl7.org/CodeSystem/medicationrequest-category",
                                "code": "community",
                                "display": "Community"
                            }
                        ],
                        "text": "Community"
                    }
                ],
                "reportedBoolean": true,
                "medicationReference": {
                    "reference": "Medication/eZqObtEC4Ysw2NAIIUEbtq7hRoRloCQgI3xJw8I.3.1qbkFSaOlq8EuIWNYwylKN03",
                    "display": "furosemide (LASIX) tablet"
                },
                "subject": {
                    "reference": "Patient/e8rw6-eNHWZjkKDLa4Ai6qQ3",
                    "display": "Heart, Herman D"
                },
                "encounter": {
                    "reference": "Encounter/ep8OcNycSaLAQhzINFqneaw3",
                    "identifier": {
                        "use": "usual",
                        "system": "urn:oid:1.2.840.114350.1.13.0.1.7.3.698084.8",
                        "value": "19129"
                    },
                    "display": "Office Visit"
                },
                "authoredOn": "2013-03-06T15:49:58Z",
                "requester": {
                    "extension": [
                        {
                            "valueCode": "unknown",
                            "url": "http://hl7.org/fhir/StructureDefinition/data-absent-reason"
                        }
                    ]
                },
                "recorder": {
                    "reference": "Practitioner/erqn5oyiA9.LpVQkQ2Ulmgg3",
                    "type": "Practitioner",
                    "display": "Nurse Family Medicine, RN"
                },
                "courseOfTherapyType": {
                    "coding": [
                        {
                            "system": "http://terminology.hl7.org/CodeSystem/medicationrequest-course-of-therapy",
                            "code": "acute",
                            "display": "Short course (acute) therapy"
                        }
                    ],
                    "text": "Short course (acute) therapy"
                },
                "dosageInstruction": [
                    {
                        "text": "Take 20 mg by mouth 3 (three) times a day., Starting 3/6/2012, Until Wed 3/6/13, Historical Med",
                        "patientInstruction": "Take 20 mg by mouth 3 (three) times a day.",
                        "timing": {
                            "repeat": {
                                "boundsPeriod": {
                                    "start": "2012-03-06",
                                    "end": "2013-03-06"
                                },
                                "timeOfDay": [
                                    "09:00:00",
                                    "16:00:00",
                                    "21:00:00"
                                ]
                            },
                            "code": {
                                "text": "0900, 1600, 2100"
                            }
                        },
                        "asNeededBoolean": false,
                        "route": {
                            "coding": [
                                {
                                    "system": "http://snomed.info/sct",
                                    "code": "260548002",
                                    "display": "Oral (qualifier value)"
                                },
                                {
                                    "system": "urn:oid:1.2.840.114350.1.13.0.1.7.4.798268.7025",
                                    "code": "15",
                                    "display": "Oral"
                                }
                            ],
                            "text": "Oral"
                        },
                        "doseAndRate": [
                            {
                                "type": {
                                    "coding": [
                                        {
                                            "system": "http://epic.com/CodeSystem/dose-rate-type",
                                            "code": "ordered",
                                            "display": "ordered"
                                        }
                                    ],
                                    "text": "ordered"
                                },
                                "doseQuantity": {
                                    "value": 20,
                                    "unit": "mg",
                                    "system": "http://unitsofmeasure.org",
                                    "code": "mg"
                                }
                            }
                        ]
                    }
                ]
            },
            "search": {
                "mode": "match"
            }
        },
        {
            "link": [
                {
                    "relation": "self",
                    "url": "https://appmarket.epic.com/interconnect-amcurprd-oauth/api/FHIR/R4/MedicationRequest/eTRLBAtWns7yfG5z5zjRPTg3"
                }
            ],
            "fullUrl": "https://appmarket.epic.com/interconnect-amcurprd-oauth/api/FHIR/R4/MedicationRequest/eTRLBAtWns7yfG5z5zjRPTg3",
            "resource": {
                "resourceType": "MedicationRequest",
                "id": "eTRLBAtWns7yfG5z5zjRPTg3",
                "identifier": [
                    {
                        "use": "usual",
                        "system": "urn:oid:1.2.840.114350.1.13.0.1.7.2.798268",
                        "value": "963754"
                    }
                ],
                "status": "active",
                "intent": "order",
                "category": [
                    {
                        "coding": [
                            {
                                "system": "http://terminology.hl7.org/CodeSystem/medicationrequest-category",
                                "code": "community",
                                "display": "Community"
                            }
                        ],
                        "text": "Community"
                    }
                ],
                "medicationReference": {
                    "reference": "Medication/enKmjUPhmNIu0.qGUhgWft373F4nT61zmU0A1eFGkKx2twHgpyQEUsnOpFA-gH2KF3",
                    "display": "propranolol (INDERAL) tablet"
                },
                "subject": {
                    "reference": "Patient/e8rw6-eNHWZjkKDLa4Ai6qQ3",
                    "display": "Heart, Herman D"
                },
                "encounter": {
                    "reference": "Encounter/eV1dNQqaZ1dZBLZLmILml4w3",
                    "identifier": {
                        "use": "usual",
                        "system": "urn:oid:1.2.840.114350.1.13.0.1.7.3.698084.8",
                        "value": "19131"
                    },
                    "display": "Office Visit"
                },
                "authoredOn": "2013-09-04",
                "requester": {
                    "reference": "Practitioner/eM5CWtq15N0WJeuCet5bJlQ3",
                    "type": "Practitioner",
                    "display": "Physician Family Medicine, MD"
                },
                "recorder": {
                    "reference": "Practitioner/eM5CWtq15N0WJeuCet5bJlQ3",
                    "type": "Practitioner",
                    "display": "Physician Family Medicine, MD"
                },
                "courseOfTherapyType": {
                    "coding": [
                        {
                            "system": "http://terminology.hl7.org/CodeSystem/medicationrequest-course-of-therapy",
                            "code": "acute",
                            "display": "Short course (acute) therapy"
                        }
                    ],
                    "text": "Short course (acute) therapy"
                },
                "dosageInstruction": [
                    {
                        "text": "Take 1 tablet (20 mg total) by mouth 3 (three) times a day., Starting Wed 9/4/2013, Normal",
                        "patientInstruction": "Take 1 tablet (20 mg total) by mouth 3 (three) times a day.",
                        "timing": {
                            "repeat": {
                                "boundsPeriod": {
                                    "start": "2013-09-04"
                                },
                                "timeOfDay": [
                                    "09:00:00",
                                    "16:00:00",
                                    "21:00:00"
                                ]
                            },
                            "code": {
                                "text": "0900, 1600, 2100"
                            }
                        },
                        "asNeededBoolean": false,
                        "route": {
                            "coding": [
                                {
                                    "system": "http://snomed.info/sct",
                                    "code": "260548002",
                                    "display": "Oral (qualifier value)"
                                },
                                {
                                    "system": "urn:oid:1.2.840.114350.1.13.0.1.7.4.798268.7025",
                                    "code": "15",
                                    "display": "Oral"
                                }
                            ],
                            "text": "Oral"
                        },
                        "doseAndRate": [
                            {
                                "type": {
                                    "coding": [
                                        {
                                            "system": "http://epic.com/CodeSystem/dose-rate-type",
                                            "code": "calculated",
                                            "display": "calculated"
                                        }
                                    ],
                                    "text": "calculated"
                                },
                                "doseQuantity": {
                                    "value": 20,
                                    "unit": "mg",
                                    "system": "http://unitsofmeasure.org",
                                    "code": "mg"
                                }
                            },
                            {
                                "type": {
                                    "coding": [
                                        {
                                            "system": "http://epic.com/CodeSystem/dose-rate-type",
                                            "code": "admin-amount",
                                            "display": "admin-amount"
                                        }
                                    ],
                                    "text": "admin-amount"
                                },
                                "doseQuantity": {
                                    "value": 1,
                                    "unit": "tablet",
                                    "system": "http://unitsofmeasure.org",
                                    "code": "{tbl}"
                                }
                            },
                            {
                                "type": {
                                    "coding": [
                                        {
                                            "system": "http://epic.com/CodeSystem/dose-rate-type",
                                            "code": "ordered",
                                            "display": "ordered"
                                        }
                                    ],
                                    "text": "ordered"
                                },
                                "doseQuantity": {
                                    "value": 20,
                                    "unit": "mg",
                                    "system": "http://unitsofmeasure.org",
                                    "code": "mg"
                                }
                            }
                        ]
                    }
                ],
                "dispenseRequest": {
                    "validityPeriod": {
                        "start": "2013-09-04"
                    },
                    "numberOfRepeatsAllowed": 3,
                    "quantity": {
                        "value": 90,
                        "unit": "tablet"
                    },
                    "expectedSupplyDuration": {
                        "value": 30,
                        "unit": "Day",
                        "system": "http://unitsofmeasure.org",
                        "code": "d"
                    }
                },
                "priorPrescription": {
                    "reference": "MedicationRequest/eTV1giiuZWHqlKFMkT9DjzA3",
                    "display": "propranolol (INDERAL) 20 MG tablet"
                }
            },
            "search": {
                "mode": "match"
            }
        },
        {
            "link": [
                {
                    "relation": "self",
                    "url": "https://appmarket.epic.com/interconnect-amcurprd-oauth/api/FHIR/R4/MedicationRequest/eTV1giiuZWHqlKFMkT9DjzA3"
                }
            ],
            "fullUrl": "https://appmarket.epic.com/interconnect-amcurprd-oauth/api/FHIR/R4/MedicationRequest/eTV1giiuZWHqlKFMkT9DjzA3",
            "resource": {
                "resourceType": "MedicationRequest",
                "id": "eTV1giiuZWHqlKFMkT9DjzA3",
                "identifier": [
                    {
                        "use": "usual",
                        "system": "urn:oid:1.2.840.114350.1.13.0.1.7.2.798268",
                        "value": "963758"
                    }
                ],
                "status": "stopped",
                "intent": "order",
                "category": [
                    {
                        "coding": [
                            {
                                "system": "http://terminology.hl7.org/CodeSystem/medicationrequest-category",
                                "code": "community",
                                "display": "Community"
                            }
                        ],
                        "text": "Community"
                    }
                ],
                "medicationReference": {
                    "reference": "Medication/enKmjUPhmNIu0.qGUhgWftx1ff1ClJmZp0B-lmBO1xfpLVKUOr2HQvIO7-Gm7boUA3",
                    "display": "propranolol (INDERAL) tablet"
                },
                "subject": {
                    "reference": "Patient/e8rw6-eNHWZjkKDLa4Ai6qQ3",
                    "display": "Heart, Herman D"
                },
                "encounter": {
                    "reference": "Encounter/ep8OcNycSaLAQhzINFqneaw3",
                    "identifier": {
                        "use": "usual",
                        "system": "urn:oid:1.2.840.114350.1.13.0.1.7.3.698084.8",
                        "value": "19129"
                    },
                    "display": "Office Visit"
                },
                "authoredOn": "2013-03-06",
                "requester": {
                    "reference": "Practitioner/ef9TegF2nfECi-0Skirbvpg3",
                    "type": "Practitioner",
                    "display": "Physician One Cardiology, MD"
                },
                "recorder": {
                    "reference": "Practitioner/ef9TegF2nfECi-0Skirbvpg3",
                    "type": "Practitioner",
                    "display": "Physician One Cardiology, MD"
                },
                "courseOfTherapyType": {
                    "coding": [
                        {
                            "system": "http://terminology.hl7.org/CodeSystem/medicationrequest-course-of-therapy",
                            "code": "acute",
                            "display": "Short course (acute) therapy"
                        }
                    ],
                    "text": "Short course (acute) therapy"
                },
                "dosageInstruction": [
                    {
                        "text": "Take 1 tablet (20 mg total) by mouth 3 (three) times a day., Starting Wed 3/6/2013, Until Wed 9/4/2013, Normal",
                        "patientInstruction": "Take 1 tablet (20 mg total) by mouth 3 (three) times a day.",
                        "timing": {
                            "repeat": {
                                "boundsPeriod": {
                                    "start": "2013-03-06",
                                    "end": "2013-09-04"
                                },
                                "count": 546,
                                "timeOfDay": [
                                    "09:00:00",
                                    "16:00:00",
                                    "21:00:00"
                                ]
                            },
                            "code": {
                                "text": "0900, 1600, 2100"
                            }
                        },
                        "asNeededBoolean": false,
                        "route": {
                            "coding": [
                                {
                                    "system": "http://snomed.info/sct",
                                    "code": "260548002",
                                    "display": "Oral (qualifier value)"
                                },
                                {
                                    "system": "urn:oid:1.2.840.114350.1.13.0.1.7.4.798268.7025",
                                    "code": "15",
                                    "display": "Oral"
                                }
                            ],
                            "text": "Oral"
                        },
                        "doseAndRate": [
                            {
                                "type": {
                                    "coding": [
                                        {
                                            "system": "http://epic.com/CodeSystem/dose-rate-type",
                                            "code": "calculated",
                                            "display": "calculated"
                                        }
                                    ],
                                    "text": "calculated"
                                },
                                "doseQuantity": {
                                    "value": 20,
                                    "unit": "mg",
                                    "system": "http://unitsofmeasure.org",
                                    "code": "mg"
                                }
                            },
                            {
                                "type": {
                                    "coding": [
                                        {
                                            "system": "http://epic.com/CodeSystem/dose-rate-type",
                                            "code": "admin-amount",
                                            "display": "admin-amount"
                                        }
                                    ],
                                    "text": "admin-amount"
                                },
                                "doseQuantity": {
                                    "value": 1,
                                    "unit": "tablet",
                                    "system": "http://unitsofmeasure.org",
                                    "code": "{tbl}"
                                }
                            },
                            {
                                "type": {
                                    "coding": [
                                        {
                                            "system": "http://epic.com/CodeSystem/dose-rate-type",
                                            "code": "ordered",
                                            "display": "ordered"
                                        }
                                    ],
                                    "text": "ordered"
                                },
                                "doseQuantity": {
                                    "value": 20,
                                    "unit": "mg",
                                    "system": "http://unitsofmeasure.org",
                                    "code": "mg"
                                }
                            }
                        ]
                    }
                ],
                "dispenseRequest": {
                    "validityPeriod": {
                        "start": "2013-03-06",
                        "end": "2013-09-04"
                    },
                    "numberOfRepeatsAllowed": 3,
                    "quantity": {
                        "value": 90,
                        "unit": "tablet"
                    },
                    "expectedSupplyDuration": {
                        "value": 30,
                        "unit": "Day",
                        "system": "http://unitsofmeasure.org",
                        "code": "d"
                    }
                },
                "priorPrescription": {
                    "reference": "MedicationRequest/ek.l3t170m44nTXJfAoTwew3",
                    "display": "propranolol (INDERAL) 20 MG tablet"
                }
            },
            "search": {
                "mode": "match"
            }
        },
        {
            "link": [
                {
                    "relation": "self",
                    "url": "https://appmarket.epic.com/interconnect-amcurprd-oauth/api/FHIR/R4/MedicationRequest/eZZ7GyC0JOKiZ5WftuyiCWA3"
                }
            ],
            "fullUrl": "https://appmarket.epic.com/interconnect-amcurprd-oauth/api/FHIR/R4/MedicationRequest/eZZ7GyC0JOKiZ5WftuyiCWA3",
            "resource": {
                "resourceType": "MedicationRequest",
                "id": "eZZ7GyC0JOKiZ5WftuyiCWA3",
                "identifier": [
                    {
                        "use": "usual",
                        "system": "urn:oid:1.2.840.114350.1.13.0.1.7.2.798268",
                        "value": "956395"
                    }
                ],
                "status": "stopped",
                "intent": "order",
                "category": [
                    {
                        "coding": [
                            {
                                "system": "http://terminology.hl7.org/CodeSystem/medicationrequest-category",
                                "code": "community",
                                "display": "Community"
                            }
                        ],
                        "text": "Community"
                    }
                ],
                "medicationReference": {
                    "reference": "Medication/enKmjUPhmNIu0.qGUhgWft8zLJSPX9mtLlzljf742T-Gllvmf6UF-pjBKQU1psAj83",
                    "display": "propranolol (INDERAL) tablet"
                },
                "subject": {
                    "reference": "Patient/e8rw6-eNHWZjkKDLa4Ai6qQ3",
                    "display": "Heart, Herman D"
                },
                "encounter": {
                    "reference": "Encounter/enMmZaCrwooJ4TyQ3tnZliQ3",
                    "identifier": {
                        "use": "usual",
                        "system": "urn:oid:1.2.840.114350.1.13.0.1.7.3.698084.8",
                        "value": "15852"
                    },
                    "display": "Office Visit"
                },
                "authoredOn": "2013-12-16",
                "requester": {
                    "reference": "Practitioner/eM5CWtq15N0WJeuCet5bJlQ3",
                    "type": "Practitioner",
                    "display": "Physician Family Medicine, MD"
                },
                "recorder": {
                    "reference": "Practitioner/eM5CWtq15N0WJeuCet5bJlQ3",
                    "type": "Practitioner",
                    "display": "Physician Family Medicine, MD"
                },
                "courseOfTherapyType": {
                    "coding": [
                        {
                            "system": "http://terminology.hl7.org/CodeSystem/medicationrequest-course-of-therapy",
                            "code": "acute",
                            "display": "Short course (acute) therapy"
                        }
                    ],
                    "text": "Short course (acute) therapy"
                },
                "dosageInstruction": [
                    {
                        "text": "Take 1 tablet (20 mg total) by mouth 3 (three) times a day., Starting 12/16/2013, Until Discontinued, Normal",
                        "patientInstruction": "Take 1 tablet (20 mg total) by mouth 3 (three) times a day.",
                        "timing": {
                            "repeat": {
                                "boundsPeriod": {
                                    "start": "2013-12-16",
                                    "end": "2015-10-02"
                                },
                                "timeOfDay": [
                                    "09:00:00",
                                    "16:00:00",
                                    "21:00:00"
                                ]
                            },
                            "code": {
                                "text": "0900, 1600, 2100"
                            }
                        },
                        "asNeededBoolean": false,
                        "route": {
                            "coding": [
                                {
                                    "system": "http://snomed.info/sct",
                                    "code": "260548002",
                                    "display": "Oral (qualifier value)"
                                },
                                {
                                    "system": "urn:oid:1.2.840.114350.1.13.0.1.7.4.798268.7025",
                                    "code": "15",
                                    "display": "Oral"
                                }
                            ],
                            "text": "Oral"
                        },
                        "doseAndRate": [
                            {
                                "type": {
                                    "coding": [
                                        {
                                            "system": "http://epic.com/CodeSystem/dose-rate-type",
                                            "code": "calculated",
                                            "display": "calculated"
                                        }
                                    ],
                                    "text": "calculated"
                                },
                                "doseQuantity": {
                                    "value": 20,
                                    "unit": "mg",
                                    "system": "http://unitsofmeasure.org",
                                    "code": "mg"
                                }
                            },
                            {
                                "type": {
                                    "coding": [
                                        {
                                            "system": "http://epic.com/CodeSystem/dose-rate-type",
                                            "code": "admin-amount",
                                            "display": "admin-amount"
                                        }
                                    ],
                                    "text": "admin-amount"
                                },
                                "doseQuantity": {
                                    "value": 1,
                                    "unit": "tablet",
                                    "system": "http://unitsofmeasure.org",
                                    "code": "{tbl}"
                                }
                            },
                            {
                                "type": {
                                    "coding": [
                                        {
                                            "system": "http://epic.com/CodeSystem/dose-rate-type",
                                            "code": "ordered",
                                            "display": "ordered"
                                        }
                                    ],
                                    "text": "ordered"
                                },
                                "doseQuantity": {
                                    "value": 20,
                                    "unit": "mg",
                                    "system": "http://unitsofmeasure.org",
                                    "code": "mg"
                                }
                            }
                        ]
                    }
                ],
                "dispenseRequest": {
                    "validityPeriod": {
                        "start": "2013-12-16",
                        "end": "2015-10-02"
                    },
                    "numberOfRepeatsAllowed": 3,
                    "quantity": {
                        "value": 90,
                        "unit": "tablet"
                    },
                    "expectedSupplyDuration": {
                        "value": 30,
                        "unit": "Day",
                        "system": "http://unitsofmeasure.org",
                        "code": "d"
                    }
                },
                "priorPrescription": {
                    "reference": "MedicationRequest/eElDfeLctFnRcv5ROj-FzWA3",
                    "display": "propranolol (INDERAL) 20 MG tablet"
                }
            },
            "search": {
                "mode": "match"
            }
        },
        {
            "link": [
                {
                    "relation": "self",
                    "url": "https://appmarket.epic.com/interconnect-amcurprd-oauth/api/FHIR/R4/MedicationRequest/ebmKWdbYaygoJqGDf.2IIQw3"
                }
            ],
            "fullUrl": "https://appmarket.epic.com/interconnect-amcurprd-oauth/api/FHIR/R4/MedicationRequest/ebmKWdbYaygoJqGDf.2IIQw3",
            "resource": {
                "resourceType": "MedicationRequest",
                "id": "ebmKWdbYaygoJqGDf.2IIQw3",
                "identifier": [
                    {
                        "use": "usual",
                        "system": "urn:oid:1.2.840.114350.1.13.0.1.7.2.798268",
                        "value": "956398"
                    }
                ],
                "status": "stopped",
                "intent": "plan",
                "category": [
                    {
                        "coding": [
                            {
                                "system": "http://terminology.hl7.org/CodeSystem/medicationrequest-category",
                                "code": "community",
                                "display": "Community"
                            }
                        ],
                        "text": "Community"
                    }
                ],
                "reportedReference": {
                    "display": "Self"
                },
                "medicationReference": {
                    "reference": "Medication/enKmjUPhmNIu0.qGUhgWft8Iz1v3za6PQoRJBN0pndPKEqYHRf1r5xf6rIWF4cDeH3",
                    "display": "propranolol (INDERAL) tablet"
                },
                "subject": {
                    "reference": "Patient/e8rw6-eNHWZjkKDLa4Ai6qQ3",
                    "display": "Heart, Herman D"
                },
                "encounter": {
                    "reference": "Encounter/eyhxQE.UgVO28JKTzSoTXlw3",
                    "identifier": {
                        "use": "usual",
                        "system": "urn:oid:1.2.840.114350.1.13.0.1.7.3.698084.8",
                        "value": "15850"
                    },
                    "display": "Office Visit"
                },
                "authoredOn": "2013-06-17T14:49:59Z",
                "requester": {
                    "extension": [
                        {
                            "valueCode": "unknown",
                            "url": "http://hl7.org/fhir/StructureDefinition/data-absent-reason"
                        }
                    ]
                },
                "recorder": {
                    "reference": "Practitioner/erqn5oyiA9.LpVQkQ2Ulmgg3",
                    "type": "Practitioner",
                    "display": "Nurse Family Medicine, RN"
                },
                "courseOfTherapyType": {
                    "coding": [
                        {
                            "system": "http://terminology.hl7.org/CodeSystem/medicationrequest-course-of-therapy",
                            "code": "acute",
                            "display": "Short course (acute) therapy"
                        }
                    ],
                    "text": "Short course (acute) therapy"
                },
                "dosageInstruction": [
                    {
                        "text": "Take 20 mg by mouth 3 (three) times a day., Starting 12/18/2011, Until Mon 6/17/13, Historical Med",
                        "patientInstruction": "Take 20 mg by mouth 3 (three) times a day.",
                        "timing": {
                            "repeat": {
                                "boundsPeriod": {
                                    "start": "2011-12-18",
                                    "end": "2013-06-17"
                                },
                                "timeOfDay": [
                                    "09:00:00",
                                    "16:00:00",
                                    "21:00:00"
                                ]
                            },
                            "code": {
                                "text": "0900, 1600, 2100"
                            }
                        },
                        "asNeededBoolean": false,
                        "route": {
                            "coding": [
                                {
                                    "system": "http://snomed.info/sct",
                                    "code": "260548002",
                                    "display": "Oral (qualifier value)"
                                },
                                {
                                    "system": "urn:oid:1.2.840.114350.1.13.0.1.7.4.798268.7025",
                                    "code": "15",
                                    "display": "Oral"
                                }
                            ],
                            "text": "Oral"
                        },
                        "doseAndRate": [
                            {
                                "type": {
                                    "coding": [
                                        {
                                            "system": "http://epic.com/CodeSystem/dose-rate-type",
                                            "code": "ordered",
                                            "display": "ordered"
                                        }
                                    ],
                                    "text": "ordered"
                                },
                                "doseQuantity": {
                                    "value": 20,
                                    "unit": "mg",
                                    "system": "http://unitsofmeasure.org",
                                    "code": "mg"
                                }
                            }
                        ]
                    }
                ]
            },
            "search": {
                "mode": "match"
            }
        },
        {
            "link": [
                {
                    "relation": "self",
                    "url": "https://appmarket.epic.com/interconnect-amcurprd-oauth/api/FHIR/R4/MedicationRequest/efXPYcuSc9driKBWxnklTZw3"
                }
            ],
            "fullUrl": "https://appmarket.epic.com/interconnect-amcurprd-oauth/api/FHIR/R4/MedicationRequest/efXPYcuSc9driKBWxnklTZw3",
            "resource": {
                "resourceType": "MedicationRequest",
                "id": "efXPYcuSc9driKBWxnklTZw3",
                "identifier": [
                    {
                        "use": "usual",
                        "system": "urn:oid:1.2.840.114350.1.13.0.1.7.2.798268",
                        "value": "956397"
                    }
                ],
                "status": "stopped",
                "intent": "plan",
                "category": [
                    {
                        "coding": [
                            {
                                "system": "http://terminology.hl7.org/CodeSystem/medicationrequest-category",
                                "code": "community",
                                "display": "Community"
                            }
                        ],
                        "text": "Community"
                    }
                ],
                "reportedBoolean": true,
                "medicationReference": {
                    "reference": "Medication/eZqObtEC4Ysw2NAIIUEbtq120nSJesqeYTT-v1CuHKwBlnrvI9Kx7UJoi.AFfQ83E3",
                    "display": "furosemide (LASIX) tablet"
                },
                "subject": {
                    "reference": "Patient/e8rw6-eNHWZjkKDLa4Ai6qQ3",
                    "display": "Heart, Herman D"
                },
                "encounter": {
                    "reference": "Encounter/eyhxQE.UgVO28JKTzSoTXlw3",
                    "identifier": {
                        "use": "usual",
                        "system": "urn:oid:1.2.840.114350.1.13.0.1.7.3.698084.8",
                        "value": "15850"
                    },
                    "display": "Office Visit"
                },
                "authoredOn": "2013-06-17T14:49:58Z",
                "requester": {
                    "extension": [
                        {
                            "valueCode": "unknown",
                            "url": "http://hl7.org/fhir/StructureDefinition/data-absent-reason"
                        }
                    ]
                },
                "recorder": {
                    "reference": "Practitioner/erqn5oyiA9.LpVQkQ2Ulmgg3",
                    "type": "Practitioner",
                    "display": "Nurse Family Medicine, RN"
                },
                "courseOfTherapyType": {
                    "coding": [
                        {
                            "system": "http://terminology.hl7.org/CodeSystem/medicationrequest-course-of-therapy",
                            "code": "acute",
                            "display": "Short course (acute) therapy"
                        }
                    ],
                    "text": "Short course (acute) therapy"
                },
                "dosageInstruction": [
                    {
                        "text": "Take 20 mg by mouth 3 (three) times a day., Starting 6/17/2012, Until Mon 6/17/13, Historical Med",
                        "patientInstruction": "Take 20 mg by mouth 3 (three) times a day.",
                        "timing": {
                            "repeat": {
                                "boundsPeriod": {
                                    "start": "2012-06-17",
                                    "end": "2013-06-17"
                                },
                                "timeOfDay": [
                                    "09:00:00",
                                    "16:00:00",
                                    "21:00:00"
                                ]
                            },
                            "code": {
                                "text": "0900, 1600, 2100"
                            }
                        },
                        "asNeededBoolean": false,
                        "route": {
                            "coding": [
                                {
                                    "system": "http://snomed.info/sct",
                                    "code": "260548002",
                                    "display": "Oral (qualifier value)"
                                },
                                {
                                    "system": "urn:oid:1.2.840.114350.1.13.0.1.7.4.798268.7025",
                                    "code": "15",
                                    "display": "Oral"
                                }
                            ],
                            "text": "Oral"
                        },
                        "doseAndRate": [
                            {
                                "type": {
                                    "coding": [
                                        {
                                            "system": "http://epic.com/CodeSystem/dose-rate-type",
                                            "code": "ordered",
                                            "display": "ordered"
                                        }
                                    ],
                                    "text": "ordered"
                                },
                                "doseQuantity": {
                                    "value": 20,
                                    "unit": "mg",
                                    "system": "http://unitsofmeasure.org",
                                    "code": "mg"
                                }
                            }
                        ]
                    }
                ]
            },
            "search": {
                "mode": "match"
            }
        },
        {
            "link": [
                {
                    "relation": "self",
                    "url": "https://appmarket.epic.com/interconnect-amcurprd-oauth/api/FHIR/R4/MedicationRequest/ehlYkZKx0XMgdL0ftUJ0zYg3"
                }
            ],
            "fullUrl": "https://appmarket.epic.com/interconnect-amcurprd-oauth/api/FHIR/R4/MedicationRequest/ehlYkZKx0XMgdL0ftUJ0zYg3",
            "resource": {
                "resourceType": "MedicationRequest",
                "id": "ehlYkZKx0XMgdL0ftUJ0zYg3",
                "identifier": [
                    {
                        "use": "usual",
                        "system": "urn:oid:1.2.840.114350.1.13.0.1.7.2.798268",
                        "value": "963755"
                    }
                ],
                "status": "active",
                "intent": "order",
                "category": [
                    {
                        "coding": [
                            {
                                "system": "http://terminology.hl7.org/CodeSystem/medicationrequest-category",
                                "code": "community",
                                "display": "Community"
                            }
                        ],
                        "text": "Community"
                    }
                ],
                "medicationReference": {
                    "reference": "Medication/eZqObtEC4Ysw2NAIIUEbtq94avn2aqC1OZed3Nr-yF4Sg85o6xg5U7zXZwdjNAWk33",
                    "display": "furosemide (LASIX) tablet"
                },
                "subject": {
                    "reference": "Patient/e8rw6-eNHWZjkKDLa4Ai6qQ3",
                    "display": "Heart, Herman D"
                },
                "encounter": {
                    "reference": "Encounter/eV1dNQqaZ1dZBLZLmILml4w3",
                    "identifier": {
                        "use": "usual",
                        "system": "urn:oid:1.2.840.114350.1.13.0.1.7.3.698084.8",
                        "value": "19131"
                    },
                    "display": "Office Visit"
                },
                "authoredOn": "2013-09-04",
                "requester": {
                    "reference": "Practitioner/eM5CWtq15N0WJeuCet5bJlQ3",
                    "type": "Practitioner",
                    "display": "Physician Family Medicine, MD"
                },
                "recorder": {
                    "reference": "Practitioner/eM5CWtq15N0WJeuCet5bJlQ3",
                    "type": "Practitioner",
                    "display": "Physician Family Medicine, MD"
                },
                "courseOfTherapyType": {
                    "coding": [
                        {
                            "system": "http://terminology.hl7.org/CodeSystem/medicationrequest-course-of-therapy",
                            "code": "acute",
                            "display": "Short course (acute) therapy"
                        }
                    ],
                    "text": "Short course (acute) therapy"
                },
                "dosageInstruction": [
                    {
                        "text": "Take 1 tablet (20 mg total) by mouth 3 (three) times a day., Starting Wed 9/4/2013, Normal",
                        "patientInstruction": "Take 1 tablet (20 mg total) by mouth 3 (three) times a day.",
                        "timing": {
                            "repeat": {
                                "boundsPeriod": {
                                    "start": "2013-09-04"
                                },
                                "timeOfDay": [
                                    "09:00:00",
                                    "16:00:00",
                                    "21:00:00"
                                ]
                            },
                            "code": {
                                "text": "0900, 1600, 2100"
                            }
                        },
                        "asNeededBoolean": false,
                        "route": {
                            "coding": [
                                {
                                    "system": "http://snomed.info/sct",
                                    "code": "260548002",
                                    "display": "Oral (qualifier value)"
                                },
                                {
                                    "system": "urn:oid:1.2.840.114350.1.13.0.1.7.4.798268.7025",
                                    "code": "15",
                                    "display": "Oral"
                                }
                            ],
                            "text": "Oral"
                        },
                        "doseAndRate": [
                            {
                                "type": {
                                    "coding": [
                                        {
                                            "system": "http://epic.com/CodeSystem/dose-rate-type",
                                            "code": "calculated",
                                            "display": "calculated"
                                        }
                                    ],
                                    "text": "calculated"
                                },
                                "doseQuantity": {
                                    "value": 20,
                                    "unit": "mg",
                                    "system": "http://unitsofmeasure.org",
                                    "code": "mg"
                                }
                            },
                            {
                                "type": {
                                    "coding": [
                                        {
                                            "system": "http://epic.com/CodeSystem/dose-rate-type",
                                            "code": "admin-amount",
                                            "display": "admin-amount"
                                        }
                                    ],
                                    "text": "admin-amount"
                                },
                                "doseQuantity": {
                                    "value": 1,
                                    "unit": "tablet",
                                    "system": "http://unitsofmeasure.org",
                                    "code": "{tbl}"
                                }
                            },
                            {
                                "type": {
                                    "coding": [
                                        {
                                            "system": "http://epic.com/CodeSystem/dose-rate-type",
                                            "code": "ordered",
                                            "display": "ordered"
                                        }
                                    ],
                                    "text": "ordered"
                                },
                                "doseQuantity": {
                                    "value": 20,
                                    "unit": "mg",
                                    "system": "http://unitsofmeasure.org",
                                    "code": "mg"
                                }
                            }
                        ]
                    }
                ],
                "dispenseRequest": {
                    "validityPeriod": {
                        "start": "2013-09-04"
                    },
                    "numberOfRepeatsAllowed": 3,
                    "quantity": {
                        "value": 90,
                        "unit": "tablet"
                    },
                    "expectedSupplyDuration": {
                        "value": 30,
                        "unit": "Day",
                        "system": "http://unitsofmeasure.org",
                        "code": "d"
                    }
                },
                "priorPrescription": {
                    "reference": "MedicationRequest/eJXskn39-4HtxbeaDK4Pafw3",
                    "display": "furosemide (LASIX) 20 MG tablet"
                }
            },
            "search": {
                "mode": "match"
            }
        },
        {
            "link": [
                {
                    "relation": "self",
                    "url": "https://appmarket.epic.com/interconnect-amcurprd-oauth/api/FHIR/R4/MedicationRequest/ek.l3t170m44nTXJfAoTwew3"
                }
            ],
            "fullUrl": "https://appmarket.epic.com/interconnect-amcurprd-oauth/api/FHIR/R4/MedicationRequest/ek.l3t170m44nTXJfAoTwew3",
            "resource": {
                "resourceType": "MedicationRequest",
                "id": "ek.l3t170m44nTXJfAoTwew3",
                "identifier": [
                    {
                        "use": "usual",
                        "system": "urn:oid:1.2.840.114350.1.13.0.1.7.2.798268",
                        "value": "963757"
                    }
                ],
                "status": "stopped",
                "intent": "plan",
                "category": [
                    {
                        "coding": [
                            {
                                "system": "http://terminology.hl7.org/CodeSystem/medicationrequest-category",
                                "code": "community",
                                "display": "Community"
                            }
                        ],
                        "text": "Community"
                    }
                ],
                "reportedReference": {
                    "display": "Self"
                },
                "medicationReference": {
                    "reference": "Medication/enKmjUPhmNIu0.qGUhgWft5VsRwqUheUcv7lLD-4dKmqsE-y3rb1b92nwqwqnpHVN3",
                    "display": "propranolol (INDERAL) tablet"
                },
                "subject": {
                    "reference": "Patient/e8rw6-eNHWZjkKDLa4Ai6qQ3",
                    "display": "Heart, Herman D"
                },
                "encounter": {
                    "reference": "Encounter/ep8OcNycSaLAQhzINFqneaw3",
                    "identifier": {
                        "use": "usual",
                        "system": "urn:oid:1.2.840.114350.1.13.0.1.7.3.698084.8",
                        "value": "19129"
                    },
                    "display": "Office Visit"
                },
                "authoredOn": "2013-03-06T15:49:59Z",
                "requester": {
                    "extension": [
                        {
                            "valueCode": "unknown",
                            "url": "http://hl7.org/fhir/StructureDefinition/data-absent-reason"
                        }
                    ]
                },
                "recorder": {
                    "reference": "Practitioner/erqn5oyiA9.LpVQkQ2Ulmgg3",
                    "type": "Practitioner",
                    "display": "Nurse Family Medicine, RN"
                },
                "courseOfTherapyType": {
                    "coding": [
                        {
                            "system": "http://terminology.hl7.org/CodeSystem/medicationrequest-course-of-therapy",
                            "code": "acute",
                            "display": "Short course (acute) therapy"
                        }
                    ],
                    "text": "Short course (acute) therapy"
                },
                "dosageInstruction": [
                    {
                        "text": "Take 20 mg by mouth 3 (three) times a day., Starting 9/6/2011, Until Wed 3/6/13, Historical Med",
                        "patientInstruction": "Take 20 mg by mouth 3 (three) times a day.",
                        "timing": {
                            "repeat": {
                                "boundsPeriod": {
                                    "start": "2011-09-06",
                                    "end": "2013-03-06"
                                },
                                "timeOfDay": [
                                    "09:00:00",
                                    "16:00:00",
                                    "21:00:00"
                                ]
                            },
                            "code": {
                                "text": "0900, 1600, 2100"
                            }
                        },
                        "asNeededBoolean": false,
                        "route": {
                            "coding": [
                                {
                                    "system": "http://snomed.info/sct",
                                    "code": "260548002",
                                    "display": "Oral (qualifier value)"
                                },
                                {
                                    "system": "urn:oid:1.2.840.114350.1.13.0.1.7.4.798268.7025",
                                    "code": "15",
                                    "display": "Oral"
                                }
                            ],
                            "text": "Oral"
                        },
                        "doseAndRate": [
                            {
                                "type": {
                                    "coding": [
                                        {
                                            "system": "http://epic.com/CodeSystem/dose-rate-type",
                                            "code": "ordered",
                                            "display": "ordered"
                                        }
                                    ],
                                    "text": "ordered"
                                },
                                "doseQuantity": {
                                    "value": 20,
                                    "unit": "mg",
                                    "system": "http://unitsofmeasure.org",
                                    "code": "mg"
                                }
                            }
                        ]
                    }
                ]
            },
            "search": {
                "mode": "match"
            }
        },
        {
            "link": [
                {
                    "relation": "self",
                    "url": "https://appmarket.epic.com/interconnect-amcurprd-oauth/api/FHIR/R4/MedicationRequest/etfkPKDsfwxOk39aJXVCCJA3"
                }
            ],
            "fullUrl": "https://appmarket.epic.com/interconnect-amcurprd-oauth/api/FHIR/R4/MedicationRequest/etfkPKDsfwxOk39aJXVCCJA3",
            "resource": {
                "resourceType": "MedicationRequest",
                "id": "etfkPKDsfwxOk39aJXVCCJA3",
                "identifier": [
                    {
                        "use": "usual",
                        "system": "urn:oid:1.2.840.114350.1.13.0.1.7.2.798268",
                        "value": "956400"
                    }
                ],
                "status": "stopped",
                "intent": "order",
                "category": [
                    {
                        "coding": [
                            {
                                "system": "http://terminology.hl7.org/CodeSystem/medicationrequest-category",
                                "code": "community",
                                "display": "Community"
                            }
                        ],
                        "text": "Community"
                    }
                ],
                "medicationReference": {
                    "reference": "Medication/eZqObtEC4Ysw2NAIIUEbtq09xj3eAQtvjCKoBzILzI8Edeq6DdccNjr.pxLIU5P5U3",
                    "display": "furosemide (LASIX) tablet"
                },
                "subject": {
                    "reference": "Patient/e8rw6-eNHWZjkKDLa4Ai6qQ3",
                    "display": "Heart, Herman D"
                },
                "encounter": {
                    "reference": "Encounter/eyhxQE.UgVO28JKTzSoTXlw3",
                    "identifier": {
                        "use": "usual",
                        "system": "urn:oid:1.2.840.114350.1.13.0.1.7.3.698084.8",
                        "value": "15850"
                    },
                    "display": "Office Visit"
                },
                "authoredOn": "2013-06-17",
                "requester": {
                    "reference": "Practitioner/ef9TegF2nfECi-0Skirbvpg3",
                    "type": "Practitioner",
                    "display": "Physician One Cardiology, MD"
                },
                "recorder": {
                    "reference": "Practitioner/ef9TegF2nfECi-0Skirbvpg3",
                    "type": "Practitioner",
                    "display": "Physician One Cardiology, MD"
                },
                "courseOfTherapyType": {
                    "coding": [
                        {
                            "system": "http://terminology.hl7.org/CodeSystem/medicationrequest-course-of-therapy",
                            "code": "acute",
                            "display": "Short course (acute) therapy"
                        }
                    ],
                    "text": "Short course (acute) therapy"
                },
                "dosageInstruction": [
                    {
                        "text": "Take 1 tablet (20 mg total) by mouth 3 (three) times a day., Starting Mon 6/17/2013, Until Mon 12/16/2013, Normal",
                        "patientInstruction": "Take 1 tablet (20 mg total) by mouth 3 (three) times a day.",
                        "timing": {
                            "repeat": {
                                "boundsPeriod": {
                                    "start": "2013-06-17",
                                    "end": "2013-12-16"
                                },
                                "count": 546,
                                "timeOfDay": [
                                    "09:00:00",
                                    "16:00:00",
                                    "21:00:00"
                                ]
                            },
                            "code": {
                                "text": "0900, 1600, 2100"
                            }
                        },
                        "asNeededBoolean": false,
                        "route": {
                            "coding": [
                                {
                                    "system": "http://snomed.info/sct",
                                    "code": "260548002",
                                    "display": "Oral (qualifier value)"
                                },
                                {
                                    "system": "urn:oid:1.2.840.114350.1.13.0.1.7.4.798268.7025",
                                    "code": "15",
                                    "display": "Oral"
                                }
                            ],
                            "text": "Oral"
                        },
                        "doseAndRate": [
                            {
                                "type": {
                                    "coding": [
                                        {
                                            "system": "http://epic.com/CodeSystem/dose-rate-type",
                                            "code": "calculated",
                                            "display": "calculated"
                                        }
                                    ],
                                    "text": "calculated"
                                },
                                "doseQuantity": {
                                    "value": 20,
                                    "unit": "mg",
                                    "system": "http://unitsofmeasure.org",
                                    "code": "mg"
                                }
                            },
                            {
                                "type": {
                                    "coding": [
                                        {
                                            "system": "http://epic.com/CodeSystem/dose-rate-type",
                                            "code": "admin-amount",
                                            "display": "admin-amount"
                                        }
                                    ],
                                    "text": "admin-amount"
                                },
                                "doseQuantity": {
                                    "value": 1,
                                    "unit": "tablet",
                                    "system": "http://unitsofmeasure.org",
                                    "code": "{tbl}"
                                }
                            },
                            {
                                "type": {
                                    "coding": [
                                        {
                                            "system": "http://epic.com/CodeSystem/dose-rate-type",
                                            "code": "ordered",
                                            "display": "ordered"
                                        }
                                    ],
                                    "text": "ordered"
                                },
                                "doseQuantity": {
                                    "value": 20,
                                    "unit": "mg",
                                    "system": "http://unitsofmeasure.org",
                                    "code": "mg"
                                }
                            }
                        ]
                    }
                ],
                "dispenseRequest": {
                    "validityPeriod": {
                        "start": "2013-06-17",
                        "end": "2013-12-16"
                    },
                    "numberOfRepeatsAllowed": 3,
                    "quantity": {
                        "value": 90,
                        "unit": "tablet"
                    },
                    "expectedSupplyDuration": {
                        "value": 30,
                        "unit": "Day",
                        "system": "http://unitsofmeasure.org",
                        "code": "d"
                    }
                },
                "priorPrescription": {
                    "reference": "MedicationRequest/efXPYcuSc9driKBWxnklTZw3",
                    "display": "furosemide (LASIX) 20 MG tablet"
                }
            },
            "search": {
                "mode": "match"
            }
        },
        {
            "link": [
                {
                    "relation": "self",
                    "url": "https://appmarket.epic.com/interconnect-amcurprd-oauth/api/FHIR/R4/Patient/e8rw6-eNHWZjkKDLa4Ai6qQ3"
                }
            ],
            "fullUrl": "https://appmarket.epic.com/interconnect-amcurprd-oauth/api/FHIR/R4/Patient/e8rw6-eNHWZjkKDLa4Ai6qQ3",
            "resource": {
                "resourceType": "Patient",
                "id": "e8rw6-eNHWZjkKDLa4Ai6qQ3",
                "extension": [
                    {
                        "extension": [
                            {
                                "valueCoding": {
                                    "system": "urn:oid:2.16.840.1.113883.6.238",
                                    "code": "2106-3",
                                    "display": "White"
                                },
                                "url": "ombCategory"
                            },
                            {
                                "valueString": "White",
                                "url": "text"
                            }
                        ],
                        "url": "http://hl7.org/fhir/us/core/StructureDefinition/us-core-race"
                    },
                    {
                        "extension": [
                            {
                                "valueCoding": {
                                    "system": "urn:oid:2.16.840.1.113883.6.238",
                                    "code": "2186-5",
                                    "display": "Not Hispanic or Latino"
                                },
                                "url": "ombCategory"
                            },
                            {
                                "valueString": "Not Hispanic or Latino",
                                "url": "text"
                            }
                        ],
                        "url": "http://hl7.org/fhir/us/core/StructureDefinition/us-core-ethnicity"
                    },
                    {
                        "valueCodeableConcept": {
                            "coding": [
                                {
                                    "system": "urn:oid:1.2.840.114350.1.13.0.1.7.10.698084.130.657370.19999000",
                                    "code": "male",
                                    "display": "male"
                                }
                            ]
                        },
                        "url": "http://open.epic.com/FHIR/StructureDefinition/extension/legal-sex"
                    },
                    {
                        "valueCodeableConcept": {
                            "coding": [
                                {
                                    "system": "urn:oid:1.2.840.114350.1.13.0.1.7.10.698084.130.657370.19999000",
                                    "code": "male",
                                    "display": "male"
                                }
                            ]
                        },
                        "url": "http://open.epic.com/FHIR/StructureDefinition/extension/sex-for-clinical-use"
                    },
                    {
                        "valueCode": "M",
                        "url": "http://hl7.org/fhir/us/core/StructureDefinition/us-core-birthsex"
                    }
                ],
                "identifier": [
                    {
                        "use": "usual",
                        "system": "urn:oid:2.16.840.1.113883.4.1",
                        "value": "575-14-7881"
                    },
                    {
                        "use": "usual",
                        "type": {
                            "text": "CEID"
                        },
                        "system": "urn:epic:apporchard.curprod",
                        "value": "AO1Q2TG9D5KDN93"
                    },
                    {
                        "use": "usual",
                        "type": {
                            "text": "EPIC"
                        },
                        "system": "urn:oid:1.2.840.114350.1.1",
                        "value": "E3672"
                    },
                    {
                        "use": "usual",
                        "type": {
                            "text": "EXTERNAL"
                        },
                        "system": "urn:oid:1.2.840.114350.1.13.0.1.7.2.698084",
                        "value": "Z5529"
                    },
                    {
                        "use": "usual",
                        "type": {
                            "text": "FHIR"
                        },
                        "system": "http://open.epic.com/FHIR/StructureDefinition/patient-dstu2-fhir-id",
                        "value": "TkDnN45Wrj2CPw0jlA4zvXSJ4jIX4trSMx8A3QMKL8OkB"
                    },
                    {
                        "use": "usual",
                        "type": {
                            "text": "FHIR STU3"
                        },
                        "system": "http://open.epic.com/FHIR/StructureDefinition/patient-fhir-id",
                        "value": "e8rw6-eNHWZjkKDLa4Ai6qQ3"
                    },
                    {
                        "use": "usual",
                        "type": {
                            "text": "INTERNAL"
                        },
                        "system": "urn:oid:1.2.840.114350.1.13.0.1.7.2.698084",
                        "value": "     Z5529"
                    },
                    {
                        "use": "usual",
                        "type": {
                            "text": "MRN"
                        },
                        "system": "urn:oid:1.2.840.114350.1.13.0.1.7.5.737384.14",
                        "value": "203427"
                    },
                    {
                        "use": "usual",
                        "type": {
                            "text": "MYCHARTLOGIN"
                        },
                        "system": "urn:oid:1.2.840.114350.1.13.0.1.7.3.878082.110",
                        "value": "HEARTHERMAND"
                    },
                    {
                        "use": "usual",
                        "type": {
                            "text": "WPRINTERNAL"
                        },
                        "system": "urn:oid:1.2.840.114350.1.13.0.1.7.2.878082",
                        "value": "214"
                    }
                ],
                "active": true,
                "name": [
                    {
                        "use": "old",
                        "text": "HEART,HERMAN D",
                        "family": "Heart",
                        "given": [
                            "Herman",
                            "D"
                        ]
                    },
                    {
                        "use": "old",
                        "text": "HEART,HERMAN TXPD",
                        "family": "Heart",
                        "given": [
                            "Herman",
                            "Txpd"
                        ]
                    },
                    {
                        "use": "official",
                        "text": "Herman D Heart",
                        "family": "Heart",
                        "given": [
                            "Herman",
                            "D"
                        ]
                    },
                    {
                        "use": "usual",
                        "text": "Herman D Heart",
                        "family": "Heart",
                        "given": [
                            "Herman",
                            "D"
                        ]
                    }
                ],
                "telecom": [
                    {
                        "system": "phone",
                        "value": "555-555-5555",
                        "use": "home"
                    }
                ],
                "gender": "male",
                "birthDate": "1976-03-06",
                "deceasedBoolean": false,
                "address": [
                    {
                        "use": "home",
                        "line": [
                            "1979 Milky Way"
                        ],
                        "city": "MADISON",
                        "district": "DANE",
                        "state": "WI",
                        "postalCode": "53711",
                        "country": "US"
                    }
                ],
                "maritalStatus": {
                    "text": "Single"
                },
                "contact": [
                    {
                        "relationship": [
                            {
                                "coding": [
                                    {
                                        "system": "http://terminology.hl7.org/CodeSystem/v2-0131",
                                        "code": "C",
                                        "display": "Emergency Contact"
                                    },
                                    {
                                        "system": "http://terminology.hl7.org/CodeSystem/v2-0131",
                                        "code": "N",
                                        "display": "Next-of-Kin"
                                    },
                                    {
                                        "system": "urn:oid:1.2.840.114350.1.13.0.1.7.4.827665.1000",
                                        "code": "3",
                                        "display": "Father"
                                    }
                                ],
                                "text": "Father"
                            }
                        ],
                        "name": {
                            "use": "usual",
                            "text": "Heart,Jim A"
                        },
                        "telecom": [
                            {
                                "system": "phone",
                                "value": "555-555-5555",
                                "use": "home"
                            },
                            {
                                "system": "phone",
                                "value": "555-555-5555",
                                "use": "work"
                            }
                        ],
                        "address": {
                            "use": "home",
                            "line": [
                                "1979 Milky Way"
                            ],
                            "city": "MADISON",
                            "district": "DANE",
                            "state": "WI",
                            "postalCode": "53711",
                            "country": "US"
                        }
                    },
                    {
                        "relationship": [
                            {
                                "coding": [
                                    {
                                        "system": "http://terminology.hl7.org/CodeSystem/v2-0131",
                                        "code": "C",
                                        "display": "Emergency Contact"
                                    },
                                    {
                                        "system": "http://terminology.hl7.org/CodeSystem/v2-0131",
                                        "code": "N",
                                        "display": "Next-of-Kin"
                                    },
                                    {
                                        "system": "urn:oid:1.2.840.114350.1.13.0.1.7.4.827665.1000",
                                        "code": "3",
                                        "display": "Father"
                                    }
                                ],
                                "text": "Father"
                            }
                        ],
                        "name": {
                            "use": "usual",
                            "text": "Heart,Jim A"
                        },
                        "telecom": [
                            {
                                "system": "phone",
                                "value": "555-555-5555",
                                "use": "home"
                            },
                            {
                                "system": "phone",
                                "value": "555-555-5555",
                                "use": "work"
                            }
                        ],
                        "address": {
                            "use": "home",
                            "line": [
                                "1979 Milky Way"
                            ],
                            "city": "MADISON",
                            "district": "DANE",
                            "state": "WI",
                            "postalCode": "53711",
                            "country": "US"
                        }
                    }
                ],
                "communication": [
                    {
                        "language": {
                            "coding": [
                                {
                                    "system": "urn:ietf:bcp:47",
                                    "code": "en",
                                    "display": "English"
                                }
                            ],
                            "text": "English"
                        },
                        "preferred": true
                    }
                ],
                "managingOrganization": {
                    "reference": "Organization/enRyWnSP963FYDpoks4NHOA3",
                    "display": "Epic Hospital System"
                },
                "link": [
                    {
                        "extension": [
                            {
                                "valueInstant": "2015-10-02T18:22:22Z",
                                "url": "https://open.epic.com/FHIR/StructureDefinition/patient-merge-unmerge-instant"
                            }
                        ],
                        "other": {
                            "reference": "Patient/eBlkjMgCULIrBzEhM-2kKtA3"
                        },
                        "type": "replaces"
                    }
                ]
            },
            "search": {
                "mode": "include"
            }
        },
        {
            "link": [
                {
                    "relation": "self",
                    "url": "https://appmarket.epic.com/interconnect-amcurprd-oauth/api/FHIR/R4/Encounter/eV1dNQqaZ1dZBLZLmILml4w3"
                }
            ],
            "fullUrl": "https://appmarket.epic.com/interconnect-amcurprd-oauth/api/FHIR/R4/Encounter/eV1dNQqaZ1dZBLZLmILml4w3",
            "resource": {
                "resourceType": "Encounter",
                "id": "eV1dNQqaZ1dZBLZLmILml4w3",
                "identifier": [
                    {
                        "use": "usual",
                        "system": "urn:oid:1.2.840.114350.1.13.0.1.7.3.698084.8",
                        "value": "19131"
                    }
                ],
                "status": "finished",
                "class": {
                    "system": "urn:oid:1.2.840.114350.1.72.1.7.7.10.696784.13260",
                    "code": "13",
                    "display": "Support OP Encounter"
                },
                "type": [
                    {
                        "coding": [
                            {
                                "system": "urn:oid:1.2.840.114350.1.13.0.1.7.10.698084.30",
                                "code": "101",
                                "display": "Office Visit"
                            }
                        ],
                        "text": "Office Visit"
                    }
                ],
                "subject": {
                    "reference": "Patient/e8rw6-eNHWZjkKDLa4Ai6qQ3",
                    "display": "Heart, Herman D"
                },
                "participant": [
                    {
                        "type": [
                            {
                                "text": "losAuthorizingPhysician"
                            }
                        ],
                        "individual": {
                            "reference": "Practitioner/emhilH6WzKBpangkpuWtgdQ3",
                            "type": "Practitioner",
                            "display": "Physician Phoenix, MD"
                        }
                    }
                ],
                "period": {
                    "start": "2013-09-04",
                    "end": "2013-09-04"
                },
                "reasonCode": [
                    {
                        "coding": [
                            {
                                "system": "urn:oid:1.2.840.114350.1.13.0.1.7.2.728286",
                                "code": "127",
                                "display": "Congestive Heart Failure"
                            }
                        ],
                        "text": "Congestive Heart Failure"
                    },
                    {
                        "coding": [
                            {
                                "system": "urn:oid:1.2.840.114350.1.13.0.1.7.2.728286",
                                "code": "182",
                                "display": "Hyperlipidemia"
                            }
                        ],
                        "text": "Hyperlipidemia"
                    }
                ],
                "location": [
                    {
                        "location": {
                            "reference": "Location/e4W4rmGe9QzuGm2Dy4NBqVc0KDe6yGld6HW95UuN-Qd03",
                            "display": "EMC Family Medicine"
                        }
                    }
                ]
            },
            "search": {
                "mode": "include"
            }
        },
        {
            "link": [
                {
                    "relation": "self",
                    "url": "https://appmarket.epic.com/interconnect-amcurprd-oauth/api/FHIR/R4/Medication/eZqObtEC4Ysw2NAIIUEbtq.W2O7lJw.rx.BH.OexcfjPVl2-k.A98XiZJkNeeRupV3"
                }
            ],
            "fullUrl": "https://appmarket.epic.com/interconnect-amcurprd-oauth/api/FHIR/R4/Medication/eZqObtEC4Ysw2NAIIUEbtq.W2O7lJw.rx.BH.OexcfjPVl2-k.A98XiZJkNeeRupV3",
            "resource": {
                "resourceType": "Medication",
                "id": "eZqObtEC4Ysw2NAIIUEbtq.W2O7lJw.rx.BH.OexcfjPVl2-k.A98XiZJkNeeRupV3",
                "code": {
                    "coding": [
                        {
                            "system": "urn:oid:2.16.840.1.113883.6.253",
                            "code": "8864"
                        },
                        {
                            "system": "urn:oid:2.16.840.1.113883.6.68",
                            "code": "37200030000305"
                        },
                        {
                            "system": "urn:oid:2.16.840.1.113883.6.162",
                            "code": "01352"
                        },
                        {
                            "system": "http://www.nlm.nih.gov/research/umls/rxnorm",
                            "code": "4603"
                        },
                        {
                            "system": "http://www.nlm.nih.gov/research/umls/rxnorm",
                            "code": "310429"
                        }
                    ],
                    "text": "furosemide (LASIX) tablet"
                },
                "form": {
                    "coding": [
                        {
                            "system": "urn:oid:1.2.840.114350.1.13.0.1.7.4.698288.310",
                            "code": "TABS",
                            "display": "tablet"
                        }
                    ],
                    "text": "tablet"
                },
                "ingredient": [
                    {
                        "itemCodeableConcept": {
                            "coding": [
                                {
                                    "system": "urn:oid:2.16.840.1.113883.6.253",
                                    "code": "8864"
                                },
                                {
                                    "system": "urn:oid:2.16.840.1.113883.6.68",
                                    "code": "37200030000305"
                                },
                                {
                                    "system": "urn:oid:2.16.840.1.113883.6.162",
                                    "code": "01352"
                                },
                                {
                                    "system": "http://www.nlm.nih.gov/research/umls/rxnorm",
                                    "code": "4603"
                                },
                                {
                                    "system": "http://www.nlm.nih.gov/research/umls/rxnorm",
                                    "code": "310429"
                                }
                            ],
                            "text": "furosemide (LASIX) tablet"
                        },
                        "strength": {
                            "numerator": {
                                "value": 20,
                                "unit": "MG",
                                "system": "http://unitsofmeasure.org",
                                "code": "mg"
                            },
                            "denominator": {
                                "value": 20,
                                "unit": "MG",
                                "system": "http://unitsofmeasure.org",
                                "code": "mg"
                            }
                        }
                    }
                ]
            },
            "search": {
                "mode": "include"
            }
        },
        {
            "link": [
                {
                    "relation": "self",
                    "url": "https://appmarket.epic.com/interconnect-amcurprd-oauth/api/FHIR/R4/Medication/eZqObtEC4Ysw2NAIIUEbtq09xj3eAQtvjCKoBzILzI8Edeq6DdccNjr.pxLIU5P5U3"
                }
            ],
            "fullUrl": "https://appmarket.epic.com/interconnect-amcurprd-oauth/api/FHIR/R4/Medication/eZqObtEC4Ysw2NAIIUEbtq09xj3eAQtvjCKoBzILzI8Edeq6DdccNjr.pxLIU5P5U3",
            "resource": {
                "resourceType": "Medication",
                "id": "eZqObtEC4Ysw2NAIIUEbtq09xj3eAQtvjCKoBzILzI8Edeq6DdccNjr.pxLIU5P5U3",
                "code": {
                    "coding": [
                        {
                            "system": "urn:oid:2.16.840.1.113883.6.253",
                            "code": "8864"
                        },
                        {
                            "system": "urn:oid:2.16.840.1.113883.6.68",
                            "code": "37200030000305"
                        },
                        {
                            "system": "urn:oid:2.16.840.1.113883.6.162",
                            "code": "01352"
                        },
                        {
                            "system": "http://www.nlm.nih.gov/research/umls/rxnorm",
                            "code": "4603"
                        },
                        {
                            "system": "http://www.nlm.nih.gov/research/umls/rxnorm",
                            "code": "310429"
                        }
                    ],
                    "text": "furosemide (LASIX) tablet"
                },
                "form": {
                    "coding": [
                        {
                            "system": "urn:oid:1.2.840.114350.1.13.0.1.7.4.698288.310",
                            "code": "TABS",
                            "display": "tablet"
                        }
                    ],
                    "text": "tablet"
                },
                "ingredient": [
                    {
                        "itemCodeableConcept": {
                            "coding": [
                                {
                                    "system": "urn:oid:2.16.840.1.113883.6.253",
                                    "code": "8864"
                                },
                                {
                                    "system": "urn:oid:2.16.840.1.113883.6.68",
                                    "code": "37200030000305"
                                },
                                {
                                    "system": "urn:oid:2.16.840.1.113883.6.162",
                                    "code": "01352"
                                },
                                {
                                    "system": "http://www.nlm.nih.gov/research/umls/rxnorm",
                                    "code": "4603"
                                },
                                {
                                    "system": "http://www.nlm.nih.gov/research/umls/rxnorm",
                                    "code": "310429"
                                }
                            ],
                            "text": "furosemide (LASIX) tablet"
                        },
                        "strength": {
                            "numerator": {
                                "value": 20,
                                "unit": "MG",
                                "system": "http://unitsofmeasure.org",
                                "code": "mg"
                            },
                            "denominator": {
                                "value": 20,
                                "unit": "MG",
                                "system": "http://unitsofmeasure.org",
                                "code": "mg"
                            }
                        }
                    }
                ]
            },
            "search": {
                "mode": "include"
            }
        },
        {
            "link": [
                {
                    "relation": "self",
                    "url": "https://appmarket.epic.com/interconnect-amcurprd-oauth/api/FHIR/R4/Medication/eZqObtEC4Ysw2NAIIUEbtq120nSJesqeYTT-v1CuHKwBlnrvI9Kx7UJoi.AFfQ83E3"
                }
            ],
            "fullUrl": "https://appmarket.epic.com/interconnect-amcurprd-oauth/api/FHIR/R4/Medication/eZqObtEC4Ysw2NAIIUEbtq120nSJesqeYTT-v1CuHKwBlnrvI9Kx7UJoi.AFfQ83E3",
            "resource": {
                "resourceType": "Medication",
                "id": "eZqObtEC4Ysw2NAIIUEbtq120nSJesqeYTT-v1CuHKwBlnrvI9Kx7UJoi.AFfQ83E3",
                "code": {
                    "coding": [
                        {
                            "system": "urn:oid:2.16.840.1.113883.6.253",
                            "code": "8864"
                        },
                        {
                            "system": "urn:oid:2.16.840.1.113883.6.68",
                            "code": "37200030000305"
                        },
                        {
                            "system": "urn:oid:2.16.840.1.113883.6.162",
                            "code": "01352"
                        },
                        {
                            "system": "http://www.nlm.nih.gov/research/umls/rxnorm",
                            "code": "4603"
                        },
                        {
                            "system": "http://www.nlm.nih.gov/research/umls/rxnorm",
                            "code": "310429"
                        }
                    ],
                    "text": "furosemide (LASIX) tablet"
                },
                "form": {
                    "coding": [
                        {
                            "system": "urn:oid:1.2.840.114350.1.13.0.1.7.4.698288.310",
                            "code": "TABS",
                            "display": "tablet"
                        }
                    ],
                    "text": "tablet"
                },
                "ingredient": [
                    {
                        "itemCodeableConcept": {
                            "coding": [
                                {
                                    "system": "urn:oid:2.16.840.1.113883.6.253",
                                    "code": "8864"
                                },
                                {
                                    "system": "urn:oid:2.16.840.1.113883.6.68",
                                    "code": "37200030000305"
                                },
                                {
                                    "system": "urn:oid:2.16.840.1.113883.6.162",
                                    "code": "01352"
                                },
                                {
                                    "system": "http://www.nlm.nih.gov/research/umls/rxnorm",
                                    "code": "4603"
                                },
                                {
                                    "system": "http://www.nlm.nih.gov/research/umls/rxnorm",
                                    "code": "310429"
                                }
                            ],
                            "text": "furosemide (LASIX) tablet"
                        },
                        "strength": {
                            "numerator": {
                                "value": 20,
                                "unit": "MG",
                                "system": "http://unitsofmeasure.org",
                                "code": "mg"
                            },
                            "denominator": {
                                "value": 20,
                                "unit": "MG",
                                "system": "http://unitsofmeasure.org",
                                "code": "mg"
                            }
                        }
                    }
                ]
            },
            "search": {
                "mode": "include"
            }
        },
        {
            "link": [
                {
                    "relation": "self",
                    "url": "https://appmarket.epic.com/interconnect-amcurprd-oauth/api/FHIR/R4/Medication/eZqObtEC4Ysw2NAIIUEbtq7hRoRloCQgI3xJw8I.3.1qbkFSaOlq8EuIWNYwylKN03"
                }
            ],
            "fullUrl": "https://appmarket.epic.com/interconnect-amcurprd-oauth/api/FHIR/R4/Medication/eZqObtEC4Ysw2NAIIUEbtq7hRoRloCQgI3xJw8I.3.1qbkFSaOlq8EuIWNYwylKN03",
            "resource": {
                "resourceType": "Medication",
                "id": "eZqObtEC4Ysw2NAIIUEbtq7hRoRloCQgI3xJw8I.3.1qbkFSaOlq8EuIWNYwylKN03",
                "code": {
                    "coding": [
                        {
                            "system": "urn:oid:2.16.840.1.113883.6.253",
                            "code": "8864"
                        },
                        {
                            "system": "urn:oid:2.16.840.1.113883.6.68",
                            "code": "37200030000305"
                        },
                        {
                            "system": "urn:oid:2.16.840.1.113883.6.162",
                            "code": "01352"
                        },
                        {
                            "system": "http://www.nlm.nih.gov/research/umls/rxnorm",
                            "code": "4603"
                        },
                        {
                            "system": "http://www.nlm.nih.gov/research/umls/rxnorm",
                            "code": "310429"
                        }
                    ],
                    "text": "furosemide (LASIX) tablet"
                },
                "form": {
                    "coding": [
                        {
                            "system": "urn:oid:1.2.840.114350.1.13.0.1.7.4.698288.310",
                            "code": "TABS",
                            "display": "tablet"
                        }
                    ],
                    "text": "tablet"
                },
                "ingredient": [
                    {
                        "itemCodeableConcept": {
                            "coding": [
                                {
                                    "system": "urn:oid:2.16.840.1.113883.6.253",
                                    "code": "8864"
                                },
                                {
                                    "system": "urn:oid:2.16.840.1.113883.6.68",
                                    "code": "37200030000305"
                                },
                                {
                                    "system": "urn:oid:2.16.840.1.113883.6.162",
                                    "code": "01352"
                                },
                                {
                                    "system": "http://www.nlm.nih.gov/research/umls/rxnorm",
                                    "code": "4603"
                                },
                                {
                                    "system": "http://www.nlm.nih.gov/research/umls/rxnorm",
                                    "code": "310429"
                                }
                            ],
                            "text": "furosemide (LASIX) tablet"
                        },
                        "strength": {
                            "numerator": {
                                "value": 20,
                                "unit": "MG",
                                "system": "http://unitsofmeasure.org",
                                "code": "mg"
                            },
                            "denominator": {
                                "value": 20,
                                "unit": "MG",
                                "system": "http://unitsofmeasure.org",
                                "code": "mg"
                            }
                        }
                    }
                ]
            },
            "search": {
                "mode": "include"
            }
        },
        {
            "link": [
                {
                    "relation": "self",
                    "url": "https://appmarket.epic.com/interconnect-amcurprd-oauth/api/FHIR/R4/Medication/eZqObtEC4Ysw2NAIIUEbtq94avn2aqC1OZed3Nr-yF4Sg85o6xg5U7zXZwdjNAWk33"
                }
            ],
            "fullUrl": "https://appmarket.epic.com/interconnect-amcurprd-oauth/api/FHIR/R4/Medication/eZqObtEC4Ysw2NAIIUEbtq94avn2aqC1OZed3Nr-yF4Sg85o6xg5U7zXZwdjNAWk33",
            "resource": {
                "resourceType": "Medication",
                "id": "eZqObtEC4Ysw2NAIIUEbtq94avn2aqC1OZed3Nr-yF4Sg85o6xg5U7zXZwdjNAWk33",
                "code": {
                    "coding": [
                        {
                            "system": "urn:oid:2.16.840.1.113883.6.253",
                            "code": "8864"
                        },
                        {
                            "system": "urn:oid:2.16.840.1.113883.6.68",
                            "code": "37200030000305"
                        },
                        {
                            "system": "urn:oid:2.16.840.1.113883.6.162",
                            "code": "01352"
                        },
                        {
                            "system": "http://www.nlm.nih.gov/research/umls/rxnorm",
                            "code": "4603"
                        },
                        {
                            "system": "http://www.nlm.nih.gov/research/umls/rxnorm",
                            "code": "310429"
                        }
                    ],
                    "text": "furosemide (LASIX) tablet"
                },
                "form": {
                    "coding": [
                        {
                            "system": "urn:oid:1.2.840.114350.1.13.0.1.7.4.698288.310",
                            "code": "TABS",
                            "display": "tablet"
                        }
                    ],
                    "text": "tablet"
                },
                "ingredient": [
                    {
                        "itemCodeableConcept": {
                            "coding": [
                                {
                                    "system": "urn:oid:2.16.840.1.113883.6.253",
                                    "code": "8864"
                                },
                                {
                                    "system": "urn:oid:2.16.840.1.113883.6.68",
                                    "code": "37200030000305"
                                },
                                {
                                    "system": "urn:oid:2.16.840.1.113883.6.162",
                                    "code": "01352"
                                },
                                {
                                    "system": "http://www.nlm.nih.gov/research/umls/rxnorm",
                                    "code": "4603"
                                },
                                {
                                    "system": "http://www.nlm.nih.gov/research/umls/rxnorm",
                                    "code": "310429"
                                }
                            ],
                            "text": "furosemide (LASIX) tablet"
                        },
                        "strength": {
                            "numerator": {
                                "value": 20,
                                "unit": "MG",
                                "system": "http://unitsofmeasure.org",
                                "code": "mg"
                            },
                            "denominator": {
                                "value": 20,
                                "unit": "MG",
                                "system": "http://unitsofmeasure.org",
                                "code": "mg"
                            }
                        }
                    }
                ]
            },
            "search": {
                "mode": "include"
            }
        },
        {
            "link": [
                {
                    "relation": "self",
                    "url": "https://appmarket.epic.com/interconnect-amcurprd-oauth/api/FHIR/R4/Medication/eZqObtEC4Ysw2NAIIUEbtqwBpfe6wryDBPqzR2LOlC1UmD91EfTh-LM1ujTzrxY.F3"
                }
            ],
            "fullUrl": "https://appmarket.epic.com/interconnect-amcurprd-oauth/api/FHIR/R4/Medication/eZqObtEC4Ysw2NAIIUEbtqwBpfe6wryDBPqzR2LOlC1UmD91EfTh-LM1ujTzrxY.F3",
            "resource": {
                "resourceType": "Medication",
                "id": "eZqObtEC4Ysw2NAIIUEbtqwBpfe6wryDBPqzR2LOlC1UmD91EfTh-LM1ujTzrxY.F3",
                "code": {
                    "coding": [
                        {
                            "system": "urn:oid:2.16.840.1.113883.6.253",
                            "code": "8864"
                        },
                        {
                            "system": "urn:oid:2.16.840.1.113883.6.68",
                            "code": "37200030000305"
                        },
                        {
                            "system": "urn:oid:2.16.840.1.113883.6.162",
                            "code": "01352"
                        },
                        {
                            "system": "http://www.nlm.nih.gov/research/umls/rxnorm",
                            "code": "4603"
                        },
                        {
                            "system": "http://www.nlm.nih.gov/research/umls/rxnorm",
                            "code": "310429"
                        }
                    ],
                    "text": "furosemide (LASIX) tablet"
                },
                "form": {
                    "coding": [
                        {
                            "system": "urn:oid:1.2.840.114350.1.13.0.1.7.4.698288.310",
                            "code": "TABS",
                            "display": "tablet"
                        }
                    ],
                    "text": "tablet"
                },
                "ingredient": [
                    {
                        "itemCodeableConcept": {
                            "coding": [
                                {
                                    "system": "urn:oid:2.16.840.1.113883.6.253",
                                    "code": "8864"
                                },
                                {
                                    "system": "urn:oid:2.16.840.1.113883.6.68",
                                    "code": "37200030000305"
                                },
                                {
                                    "system": "urn:oid:2.16.840.1.113883.6.162",
                                    "code": "01352"
                                },
                                {
                                    "system": "http://www.nlm.nih.gov/research/umls/rxnorm",
                                    "code": "4603"
                                },
                                {
                                    "system": "http://www.nlm.nih.gov/research/umls/rxnorm",
                                    "code": "310429"
                                }
                            ],
                            "text": "furosemide (LASIX) tablet"
                        },
                        "strength": {
                            "numerator": {
                                "value": 20,
                                "unit": "MG",
                                "system": "http://unitsofmeasure.org",
                                "code": "mg"
                            },
                            "denominator": {
                                "value": 20,
                                "unit": "MG",
                                "system": "http://unitsofmeasure.org",
                                "code": "mg"
                            }
                        }
                    }
                ]
            },
            "search": {
                "mode": "include"
            }
        },
        {
            "link": [
                {
                    "relation": "self",
                    "url": "https://appmarket.epic.com/interconnect-amcurprd-oauth/api/FHIR/R4/Medication/enKmjUPhmNIu0.qGUhgWft373F4nT61zmU0A1eFGkKx2twHgpyQEUsnOpFA-gH2KF3"
                }
            ],
            "fullUrl": "https://appmarket.epic.com/interconnect-amcurprd-oauth/api/FHIR/R4/Medication/enKmjUPhmNIu0.qGUhgWft373F4nT61zmU0A1eFGkKx2twHgpyQEUsnOpFA-gH2KF3",
            "resource": {
                "resourceType": "Medication",
                "id": "enKmjUPhmNIu0.qGUhgWft373F4nT61zmU0A1eFGkKx2twHgpyQEUsnOpFA-gH2KF3",
                "code": {
                    "coding": [
                        {
                            "system": "urn:oid:2.16.840.1.113883.6.253",
                            "code": "17971"
                        },
                        {
                            "system": "urn:oid:2.16.840.1.113883.6.68",
                            "code": "33100040100310"
                        },
                        {
                            "system": "urn:oid:2.16.840.1.113883.6.162",
                            "code": "01109"
                        },
                        {
                            "system": "http://www.nlm.nih.gov/research/umls/rxnorm",
                            "code": "8787"
                        },
                        {
                            "system": "http://www.nlm.nih.gov/research/umls/rxnorm",
                            "code": "82084"
                        },
                        {
                            "system": "http://www.nlm.nih.gov/research/umls/rxnorm",
                            "code": "856457"
                        }
                    ],
                    "text": "propranolol (INDERAL) tablet"
                },
                "form": {
                    "coding": [
                        {
                            "system": "urn:oid:1.2.840.114350.1.13.0.1.7.4.698288.310",
                            "code": "TABS",
                            "display": "tablet"
                        }
                    ],
                    "text": "tablet"
                },
                "ingredient": [
                    {
                        "itemCodeableConcept": {
                            "coding": [
                                {
                                    "system": "urn:oid:2.16.840.1.113883.6.253",
                                    "code": "17971"
                                },
                                {
                                    "system": "urn:oid:2.16.840.1.113883.6.68",
                                    "code": "33100040100310"
                                },
                                {
                                    "system": "urn:oid:2.16.840.1.113883.6.162",
                                    "code": "01109"
                                },
                                {
                                    "system": "http://www.nlm.nih.gov/research/umls/rxnorm",
                                    "code": "8787"
                                },
                                {
                                    "system": "http://www.nlm.nih.gov/research/umls/rxnorm",
                                    "code": "82084"
                                },
                                {
                                    "system": "http://www.nlm.nih.gov/research/umls/rxnorm",
                                    "code": "856457"
                                }
                            ],
                            "text": "propranolol (INDERAL) tablet"
                        },
                        "strength": {
                            "numerator": {
                                "value": 20,
                                "unit": "MG",
                                "system": "http://unitsofmeasure.org",
                                "code": "mg"
                            },
                            "denominator": {
                                "value": 20,
                                "unit": "MG",
                                "system": "http://unitsofmeasure.org",
                                "code": "mg"
                            }
                        }
                    }
                ]
            },
            "search": {
                "mode": "include"
            }
        },
        {
            "link": [
                {
                    "relation": "self",
                    "url": "https://appmarket.epic.com/interconnect-amcurprd-oauth/api/FHIR/R4/Medication/enKmjUPhmNIu0.qGUhgWft5VsRwqUheUcv7lLD-4dKmqsE-y3rb1b92nwqwqnpHVN3"
                }
            ],
            "fullUrl": "https://appmarket.epic.com/interconnect-amcurprd-oauth/api/FHIR/R4/Medication/enKmjUPhmNIu0.qGUhgWft5VsRwqUheUcv7lLD-4dKmqsE-y3rb1b92nwqwqnpHVN3",
            "resource": {
                "resourceType": "Medication",
                "id": "enKmjUPhmNIu0.qGUhgWft5VsRwqUheUcv7lLD-4dKmqsE-y3rb1b92nwqwqnpHVN3",
                "code": {
                    "coding": [
                        {
                            "system": "urn:oid:2.16.840.1.113883.6.253",
                            "code": "17971"
                        },
                        {
                            "system": "urn:oid:2.16.840.1.113883.6.68",
                            "code": "33100040100310"
                        },
                        {
                            "system": "urn:oid:2.16.840.1.113883.6.162",
                            "code": "01109"
                        },
                        {
                            "system": "http://www.nlm.nih.gov/research/umls/rxnorm",
                            "code": "8787"
                        },
                        {
                            "system": "http://www.nlm.nih.gov/research/umls/rxnorm",
                            "code": "82084"
                        },
                        {
                            "system": "http://www.nlm.nih.gov/research/umls/rxnorm",
                            "code": "856457"
                        }
                    ],
                    "text": "propranolol (INDERAL) tablet"
                },
                "form": {
                    "coding": [
                        {
                            "system": "urn:oid:1.2.840.114350.1.13.0.1.7.4.698288.310",
                            "code": "TABS",
                            "display": "tablet"
                        }
                    ],
                    "text": "tablet"
                },
                "ingredient": [
                    {
                        "itemCodeableConcept": {
                            "coding": [
                                {
                                    "system": "urn:oid:2.16.840.1.113883.6.253",
                                    "code": "17971"
                                },
                                {
                                    "system": "urn:oid:2.16.840.1.113883.6.68",
                                    "code": "33100040100310"
                                },
                                {
                                    "system": "urn:oid:2.16.840.1.113883.6.162",
                                    "code": "01109"
                                },
                                {
                                    "system": "http://www.nlm.nih.gov/research/umls/rxnorm",
                                    "code": "8787"
                                },
                                {
                                    "system": "http://www.nlm.nih.gov/research/umls/rxnorm",
                                    "code": "82084"
                                },
                                {
                                    "system": "http://www.nlm.nih.gov/research/umls/rxnorm",
                                    "code": "856457"
                                }
                            ],
                            "text": "propranolol (INDERAL) tablet"
                        },
                        "strength": {
                            "numerator": {
                                "value": 20,
                                "unit": "MG",
                                "system": "http://unitsofmeasure.org",
                                "code": "mg"
                            },
                            "denominator": {
                                "value": 20,
                                "unit": "MG",
                                "system": "http://unitsofmeasure.org",
                                "code": "mg"
                            }
                        }
                    }
                ]
            },
            "search": {
                "mode": "include"
            }
        },
        {
            "link": [
                {
                    "relation": "self",
                    "url": "https://appmarket.epic.com/interconnect-amcurprd-oauth/api/FHIR/R4/Medication/enKmjUPhmNIu0.qGUhgWft6hK8G93j5ELpg.ClnXdLyBMJKIWAafI8quIdhd9e2U83"
                }
            ],
            "fullUrl": "https://appmarket.epic.com/interconnect-amcurprd-oauth/api/FHIR/R4/Medication/enKmjUPhmNIu0.qGUhgWft6hK8G93j5ELpg.ClnXdLyBMJKIWAafI8quIdhd9e2U83",
            "resource": {
                "resourceType": "Medication",
                "id": "enKmjUPhmNIu0.qGUhgWft6hK8G93j5ELpg.ClnXdLyBMJKIWAafI8quIdhd9e2U83",
                "code": {
                    "coding": [
                        {
                            "system": "urn:oid:2.16.840.1.113883.6.253",
                            "code": "17971"
                        },
                        {
                            "system": "urn:oid:2.16.840.1.113883.6.68",
                            "code": "33100040100310"
                        },
                        {
                            "system": "urn:oid:2.16.840.1.113883.6.162",
                            "code": "01109"
                        },
                        {
                            "system": "http://www.nlm.nih.gov/research/umls/rxnorm",
                            "code": "8787"
                        },
                        {
                            "system": "http://www.nlm.nih.gov/research/umls/rxnorm",
                            "code": "82084"
                        },
                        {
                            "system": "http://www.nlm.nih.gov/research/umls/rxnorm",
                            "code": "856457"
                        }
                    ],
                    "text": "propranolol (INDERAL) tablet"
                },
                "form": {
                    "coding": [
                        {
                            "system": "urn:oid:1.2.840.114350.1.13.0.1.7.4.698288.310",
                            "code": "TABS",
                            "display": "tablet"
                        }
                    ],
                    "text": "tablet"
                },
                "ingredient": [
                    {
                        "itemCodeableConcept": {
                            "coding": [
                                {
                                    "system": "urn:oid:2.16.840.1.113883.6.253",
                                    "code": "17971"
                                },
                                {
                                    "system": "urn:oid:2.16.840.1.113883.6.68",
                                    "code": "33100040100310"
                                },
                                {
                                    "system": "urn:oid:2.16.840.1.113883.6.162",
                                    "code": "01109"
                                },
                                {
                                    "system": "http://www.nlm.nih.gov/research/umls/rxnorm",
                                    "code": "8787"
                                },
                                {
                                    "system": "http://www.nlm.nih.gov/research/umls/rxnorm",
                                    "code": "82084"
                                },
                                {
                                    "system": "http://www.nlm.nih.gov/research/umls/rxnorm",
                                    "code": "856457"
                                }
                            ],
                            "text": "propranolol (INDERAL) tablet"
                        },
                        "strength": {
                            "numerator": {
                                "value": 20,
                                "unit": "MG",
                                "system": "http://unitsofmeasure.org",
                                "code": "mg"
                            },
                            "denominator": {
                                "value": 20,
                                "unit": "MG",
                                "system": "http://unitsofmeasure.org",
                                "code": "mg"
                            }
                        }
                    }
                ]
            },
            "search": {
                "mode": "include"
            }
        },
        {
            "link": [
                {
                    "relation": "self",
                    "url": "https://appmarket.epic.com/interconnect-amcurprd-oauth/api/FHIR/R4/Medication/enKmjUPhmNIu0.qGUhgWft8Iz1v3za6PQoRJBN0pndPKEqYHRf1r5xf6rIWF4cDeH3"
                }
            ],
            "fullUrl": "https://appmarket.epic.com/interconnect-amcurprd-oauth/api/FHIR/R4/Medication/enKmjUPhmNIu0.qGUhgWft8Iz1v3za6PQoRJBN0pndPKEqYHRf1r5xf6rIWF4cDeH3",
            "resource": {
                "resourceType": "Medication",
                "id": "enKmjUPhmNIu0.qGUhgWft8Iz1v3za6PQoRJBN0pndPKEqYHRf1r5xf6rIWF4cDeH3",
                "code": {
                    "coding": [
                        {
                            "system": "urn:oid:2.16.840.1.113883.6.253",
                            "code": "17971"
                        },
                        {
                            "system": "urn:oid:2.16.840.1.113883.6.68",
                            "code": "33100040100310"
                        },
                        {
                            "system": "urn:oid:2.16.840.1.113883.6.162",
                            "code": "01109"
                        },
                        {
                            "system": "http://www.nlm.nih.gov/research/umls/rxnorm",
                            "code": "8787"
                        },
                        {
                            "system": "http://www.nlm.nih.gov/research/umls/rxnorm",
                            "code": "82084"
                        },
                        {
                            "system": "http://www.nlm.nih.gov/research/umls/rxnorm",
                            "code": "856457"
                        }
                    ],
                    "text": "propranolol (INDERAL) tablet"
                },
                "form": {
                    "coding": [
                        {
                            "system": "urn:oid:1.2.840.114350.1.13.0.1.7.4.698288.310",
                            "code": "TABS",
                            "display": "tablet"
                        }
                    ],
                    "text": "tablet"
                },
                "ingredient": [
                    {
                        "itemCodeableConcept": {
                            "coding": [
                                {
                                    "system": "urn:oid:2.16.840.1.113883.6.253",
                                    "code": "17971"
                                },
                                {
                                    "system": "urn:oid:2.16.840.1.113883.6.68",
                                    "code": "33100040100310"
                                },
                                {
                                    "system": "urn:oid:2.16.840.1.113883.6.162",
                                    "code": "01109"
                                },
                                {
                                    "system": "http://www.nlm.nih.gov/research/umls/rxnorm",
                                    "code": "8787"
                                },
                                {
                                    "system": "http://www.nlm.nih.gov/research/umls/rxnorm",
                                    "code": "82084"
                                },
                                {
                                    "system": "http://www.nlm.nih.gov/research/umls/rxnorm",
                                    "code": "856457"
                                }
                            ],
                            "text": "propranolol (INDERAL) tablet"
                        },
                        "strength": {
                            "numerator": {
                                "value": 20,
                                "unit": "MG",
                                "system": "http://unitsofmeasure.org",
                                "code": "mg"
                            },
                            "denominator": {
                                "value": 20,
                                "unit": "MG",
                                "system": "http://unitsofmeasure.org",
                                "code": "mg"
                            }
                        }
                    }
                ]
            },
            "search": {
                "mode": "include"
            }
        },
        {
            "link": [
                {
                    "relation": "self",
                    "url": "https://appmarket.epic.com/interconnect-amcurprd-oauth/api/FHIR/R4/Medication/enKmjUPhmNIu0.qGUhgWft8zLJSPX9mtLlzljf742T-Gllvmf6UF-pjBKQU1psAj83"
                }
            ],
            "fullUrl": "https://appmarket.epic.com/interconnect-amcurprd-oauth/api/FHIR/R4/Medication/enKmjUPhmNIu0.qGUhgWft8zLJSPX9mtLlzljf742T-Gllvmf6UF-pjBKQU1psAj83",
            "resource": {
                "resourceType": "Medication",
                "id": "enKmjUPhmNIu0.qGUhgWft8zLJSPX9mtLlzljf742T-Gllvmf6UF-pjBKQU1psAj83",
                "code": {
                    "coding": [
                        {
                            "system": "urn:oid:2.16.840.1.113883.6.253",
                            "code": "17971"
                        },
                        {
                            "system": "urn:oid:2.16.840.1.113883.6.68",
                            "code": "33100040100310"
                        },
                        {
                            "system": "urn:oid:2.16.840.1.113883.6.162",
                            "code": "01109"
                        },
                        {
                            "system": "http://www.nlm.nih.gov/research/umls/rxnorm",
                            "code": "8787"
                        },
                        {
                            "system": "http://www.nlm.nih.gov/research/umls/rxnorm",
                            "code": "82084"
                        },
                        {
                            "system": "http://www.nlm.nih.gov/research/umls/rxnorm",
                            "code": "856457"
                        }
                    ],
                    "text": "propranolol (INDERAL) tablet"
                },
                "form": {
                    "coding": [
                        {
                            "system": "urn:oid:1.2.840.114350.1.13.0.1.7.4.698288.310",
                            "code": "TABS",
                            "display": "tablet"
                        }
                    ],
                    "text": "tablet"
                },
                "ingredient": [
                    {
                        "itemCodeableConcept": {
                            "coding": [
                                {
                                    "system": "urn:oid:2.16.840.1.113883.6.253",
                                    "code": "17971"
                                },
                                {
                                    "system": "urn:oid:2.16.840.1.113883.6.68",
                                    "code": "33100040100310"
                                },
                                {
                                    "system": "urn:oid:2.16.840.1.113883.6.162",
                                    "code": "01109"
                                },
                                {
                                    "system": "http://www.nlm.nih.gov/research/umls/rxnorm",
                                    "code": "8787"
                                },
                                {
                                    "system": "http://www.nlm.nih.gov/research/umls/rxnorm",
                                    "code": "82084"
                                },
                                {
                                    "system": "http://www.nlm.nih.gov/research/umls/rxnorm",
                                    "code": "856457"
                                }
                            ],
                            "text": "propranolol (INDERAL) tablet"
                        },
                        "strength": {
                            "numerator": {
                                "value": 20,
                                "unit": "MG",
                                "system": "http://unitsofmeasure.org",
                                "code": "mg"
                            },
                            "denominator": {
                                "value": 20,
                                "unit": "MG",
                                "system": "http://unitsofmeasure.org",
                                "code": "mg"
                            }
                        }
                    }
                ]
            },
            "search": {
                "mode": "include"
            }
        },
        {
            "link": [
                {
                    "relation": "self",
                    "url": "https://appmarket.epic.com/interconnect-amcurprd-oauth/api/FHIR/R4/Medication/enKmjUPhmNIu0.qGUhgWftx1ff1ClJmZp0B-lmBO1xfpLVKUOr2HQvIO7-Gm7boUA3"
                }
            ],
            "fullUrl": "https://appmarket.epic.com/interconnect-amcurprd-oauth/api/FHIR/R4/Medication/enKmjUPhmNIu0.qGUhgWftx1ff1ClJmZp0B-lmBO1xfpLVKUOr2HQvIO7-Gm7boUA3",
            "resource": {
                "resourceType": "Medication",
                "id": "enKmjUPhmNIu0.qGUhgWftx1ff1ClJmZp0B-lmBO1xfpLVKUOr2HQvIO7-Gm7boUA3",
                "code": {
                    "coding": [
                        {
                            "system": "urn:oid:2.16.840.1.113883.6.253",
                            "code": "17971"
                        },
                        {
                            "system": "urn:oid:2.16.840.1.113883.6.68",
                            "code": "33100040100310"
                        },
                        {
                            "system": "urn:oid:2.16.840.1.113883.6.162",
                            "code": "01109"
                        },
                        {
                            "system": "http://www.nlm.nih.gov/research/umls/rxnorm",
                            "code": "8787"
                        },
                        {
                            "system": "http://www.nlm.nih.gov/research/umls/rxnorm",
                            "code": "82084"
                        },
                        {
                            "system": "http://www.nlm.nih.gov/research/umls/rxnorm",
                            "code": "856457"
                        }
                    ],
                    "text": "propranolol (INDERAL) tablet"
                },
                "form": {
                    "coding": [
                        {
                            "system": "urn:oid:1.2.840.114350.1.13.0.1.7.4.698288.310",
                            "code": "TABS",
                            "display": "tablet"
                        }
                    ],
                    "text": "tablet"
                },
                "ingredient": [
                    {
                        "itemCodeableConcept": {
                            "coding": [
                                {
                                    "system": "urn:oid:2.16.840.1.113883.6.253",
                                    "code": "17971"
                                },
                                {
                                    "system": "urn:oid:2.16.840.1.113883.6.68",
                                    "code": "33100040100310"
                                },
                                {
                                    "system": "urn:oid:2.16.840.1.113883.6.162",
                                    "code": "01109"
                                },
                                {
                                    "system": "http://www.nlm.nih.gov/research/umls/rxnorm",
                                    "code": "8787"
                                },
                                {
                                    "system": "http://www.nlm.nih.gov/research/umls/rxnorm",
                                    "code": "82084"
                                },
                                {
                                    "system": "http://www.nlm.nih.gov/research/umls/rxnorm",
                                    "code": "856457"
                                }
                            ],
                            "text": "propranolol (INDERAL) tablet"
                        },
                        "strength": {
                            "numerator": {
                                "value": 20,
                                "unit": "MG",
                                "system": "http://unitsofmeasure.org",
                                "code": "mg"
                            },
                            "denominator": {
                                "value": 20,
                                "unit": "MG",
                                "system": "http://unitsofmeasure.org",
                                "code": "mg"
                            }
                        }
                    }
                ]
            },
            "search": {
                "mode": "include"
            }
        },
        {
            "link": [
                {
                    "relation": "self",
                    "url": "https://appmarket.epic.com/interconnect-amcurprd-oauth/api/FHIR/R4/Encounter/enMmZaCrwooJ4TyQ3tnZliQ3"
                }
            ],
            "fullUrl": "https://appmarket.epic.com/interconnect-amcurprd-oauth/api/FHIR/R4/Encounter/enMmZaCrwooJ4TyQ3tnZliQ3",
            "resource": {
                "resourceType": "Encounter",
                "id": "enMmZaCrwooJ4TyQ3tnZliQ3",
                "identifier": [
                    {
                        "use": "usual",
                        "system": "urn:oid:1.2.840.114350.1.13.0.1.7.3.698084.8",
                        "value": "15852"
                    }
                ],
                "status": "finished",
                "class": {
                    "system": "urn:oid:1.2.840.114350.1.72.1.7.7.10.696784.13260",
                    "code": "13",
                    "display": "Support OP Encounter"
                },
                "type": [
                    {
                        "coding": [
                            {
                                "system": "urn:oid:1.2.840.114350.1.13.0.1.7.10.698084.30",
                                "code": "101",
                                "display": "Office Visit"
                            }
                        ],
                        "text": "Office Visit"
                    }
                ],
                "subject": {
                    "reference": "Patient/e8rw6-eNHWZjkKDLa4Ai6qQ3",
                    "display": "Heart, Herman D"
                },
                "participant": [
                    {
                        "type": [
                            {
                                "text": "losAuthorizingPhysician"
                            }
                        ],
                        "individual": {
                            "reference": "Practitioner/emhilH6WzKBpangkpuWtgdQ3",
                            "type": "Practitioner",
                            "display": "Physician Phoenix, MD"
                        }
                    }
                ],
                "period": {
                    "start": "2013-12-16",
                    "end": "2013-12-16"
                },
                "reasonCode": [
                    {
                        "coding": [
                            {
                                "system": "urn:oid:1.2.840.114350.1.13.0.1.7.2.728286",
                                "code": "127",
                                "display": "Congestive Heart Failure"
                            }
                        ],
                        "text": "Congestive Heart Failure"
                    },
                    {
                        "coding": [
                            {
                                "system": "urn:oid:1.2.840.114350.1.13.0.1.7.2.728286",
                                "code": "182",
                                "display": "Hyperlipidemia"
                            }
                        ],
                        "text": "Hyperlipidemia"
                    }
                ],
                "location": [
                    {
                        "location": {
                            "reference": "Location/e4W4rmGe9QzuGm2Dy4NBqVc0KDe6yGld6HW95UuN-Qd03",
                            "display": "EMC Family Medicine"
                        }
                    }
                ]
            },
            "search": {
                "mode": "include"
            }
        },
        {
            "link": [
                {
                    "relation": "self",
                    "url": "https://appmarket.epic.com/interconnect-amcurprd-oauth/api/FHIR/R4/Encounter/ep8OcNycSaLAQhzINFqneaw3"
                }
            ],
            "fullUrl": "https://appmarket.epic.com/interconnect-amcurprd-oauth/api/FHIR/R4/Encounter/ep8OcNycSaLAQhzINFqneaw3",
            "resource": {
                "resourceType": "Encounter",
                "id": "ep8OcNycSaLAQhzINFqneaw3",
                "identifier": [
                    {
                        "use": "usual",
                        "system": "urn:oid:1.2.840.114350.1.13.0.1.7.3.698084.8",
                        "value": "19129"
                    }
                ],
                "status": "finished",
                "class": {
                    "system": "urn:oid:1.2.840.114350.1.72.1.7.7.10.696784.13260",
                    "code": "13",
                    "display": "Support OP Encounter"
                },
                "type": [
                    {
                        "coding": [
                            {
                                "system": "urn:oid:1.2.840.114350.1.13.0.1.7.10.698084.30",
                                "code": "101",
                                "display": "Office Visit"
                            }
                        ],
                        "text": "Office Visit"
                    }
                ],
                "subject": {
                    "reference": "Patient/e8rw6-eNHWZjkKDLa4Ai6qQ3",
                    "display": "Heart, Herman D"
                },
                "participant": [
                    {
                        "type": [
                            {
                                "text": "losAuthorizingPhysician"
                            }
                        ],
                        "individual": {
                            "reference": "Practitioner/emhilH6WzKBpangkpuWtgdQ3",
                            "type": "Practitioner",
                            "display": "Physician Phoenix, MD"
                        }
                    }
                ],
                "period": {
                    "start": "2013-03-06",
                    "end": "2013-03-06"
                },
                "reasonCode": [
                    {
                        "coding": [
                            {
                                "system": "urn:oid:1.2.840.114350.1.13.0.1.7.2.728286",
                                "code": "127",
                                "display": "Congestive Heart Failure"
                            }
                        ],
                        "text": "Congestive Heart Failure"
                    },
                    {
                        "coding": [
                            {
                                "system": "urn:oid:1.2.840.114350.1.13.0.1.7.2.728286",
                                "code": "182",
                                "display": "Hyperlipidemia"
                            }
                        ],
                        "text": "Hyperlipidemia"
                    }
                ],
                "location": [
                    {
                        "location": {
                            "reference": "Location/e4W4rmGe9QzuGm2Dy4NBqVc0KDe6yGld6HW95UuN-Qd03",
                            "display": "EMC Family Medicine"
                        }
                    }
                ]
            },
            "search": {
                "mode": "include"
            }
        },
        {
            "link": [
                {
                    "relation": "self",
                    "url": "https://appmarket.epic.com/interconnect-amcurprd-oauth/api/FHIR/R4/Encounter/eyhxQE.UgVO28JKTzSoTXlw3"
                }
            ],
            "fullUrl": "https://appmarket.epic.com/interconnect-amcurprd-oauth/api/FHIR/R4/Encounter/eyhxQE.UgVO28JKTzSoTXlw3",
            "resource": {
                "resourceType": "Encounter",
                "id": "eyhxQE.UgVO28JKTzSoTXlw3",
                "identifier": [
                    {
                        "use": "usual",
                        "system": "urn:oid:1.2.840.114350.1.13.0.1.7.3.698084.8",
                        "value": "15850"
                    }
                ],
                "status": "finished",
                "class": {
                    "system": "urn:oid:1.2.840.114350.1.72.1.7.7.10.696784.13260",
                    "code": "13",
                    "display": "Support OP Encounter"
                },
                "type": [
                    {
                        "coding": [
                            {
                                "system": "urn:oid:1.2.840.114350.1.13.0.1.7.10.698084.30",
                                "code": "101",
                                "display": "Office Visit"
                            }
                        ],
                        "text": "Office Visit"
                    }
                ],
                "subject": {
                    "reference": "Patient/e8rw6-eNHWZjkKDLa4Ai6qQ3",
                    "display": "Heart, Herman D"
                },
                "participant": [
                    {
                        "type": [
                            {
                                "text": "losAuthorizingPhysician"
                            }
                        ],
                        "individual": {
                            "reference": "Practitioner/emhilH6WzKBpangkpuWtgdQ3",
                            "type": "Practitioner",
                            "display": "Physician Phoenix, MD"
                        }
                    }
                ],
                "period": {
                    "start": "2013-06-17",
                    "end": "2013-06-17"
                },
                "reasonCode": [
                    {
                        "coding": [
                            {
                                "system": "urn:oid:1.2.840.114350.1.13.0.1.7.2.728286",
                                "code": "127",
                                "display": "Congestive Heart Failure"
                            }
                        ],
                        "text": "Congestive Heart Failure"
                    },
                    {
                        "coding": [
                            {
                                "system": "urn:oid:1.2.840.114350.1.13.0.1.7.2.728286",
                                "code": "182",
                                "display": "Hyperlipidemia"
                            }
                        ],
                        "text": "Hyperlipidemia"
                    }
                ],
                "location": [
                    {
                        "location": {
                            "reference": "Location/e4W4rmGe9QzuGm2Dy4NBqVc0KDe6yGld6HW95UuN-Qd03",
                            "display": "EMC Family Medicine"
                        }
                    }
                ]
            },
            "search": {
                "mode": "include"
            }
        }
    ]
}