{
    "resourceType": "Bundle",
    "type": "searchset",
    "total": 5,
    "link": [
        {
            "relation": "self",
            "url": "https://appmarket.epic.com/interconnect-amcurprd-oauth/api/FHIR/R4/MedicationRequest?_include=MedicationRequest:medicationReference&_include=MedicationRequest:encounter&_include=MedicationRequest:subject&_format=json&patient=erV159kNvlFVqcADSwOamfA3"
        }
    ],
    "entry": [
        {
            "link": [
                {
                    "relation": "self",
                    "url": "https://appmarket.epic.com/interconnect-amcurprd-oauth/api/FHIR/R4/MedicationRequest/eNiJjGWrzgxIL4gU7ik1lHQ3"
                }
            ],
            "fullUrl": "https://appmarket.epic.com/interconnect-amcurprd-oauth/api/FHIR/R4/MedicationRequest/eNiJjGWrzgxIL4gU7ik1lHQ3",
            "resource": {
                "resourceType": "MedicationRequest",
                "id": "eNiJjGWrzgxIL4gU7ik1lHQ3",
                "identifier": [
                    {
                        "use": "usual",
                        "system": "urn:oid:1.2.840.114350.1.13.0.1.7.2.798268",
                        "value": "901075"
                    }
                ],
                "status": "completed",
                "intent": "order",
                "category": [
                    {
                        "coding": [
                            {
                                "system": "http://terminology.hl7.org/CodeSystem/medicationrequest-category",
                                "code": "inpatient",
                                "display": "Inpatient"
                            }
                        ],
                        "text": "Inpatient"
                    }
                ],
                "medicationReference": {
                    "reference": "Medication/ewwZ6SC4SpVzVkpk7IqIuDpW62.F36-o-hD9eyqr0Fx-tzxnfkYcWUWXzTM53zUd63",
                    "display": "vinCRIStine (ONCOVIN) chemo injection"
                },
                "subject": {
                    "reference": "Patient/erV159kNvlFVqcADSwOamfA3",
                    "display": "Reynolds.Jacob"
                },
                "encounter": {
                    "reference": "Encounter/etY2GsXE8S6R56MRtj.r4jA3",
                    "identifier": {
                        "use": "usual",
                        "system": "urn:oid:1.2.840.114350.1.13.0.1.7.3.698084.8",
                        "value": "15169"
                    },
                    "display": "Hospital Encounter"
                },
                "authoredOn": "2013-04-01T15:53:04Z",
                "requester": {
                    "reference": "Practitioner/e8ZmxsnZCg8sKXj8JZaWzYg3",
                    "type": "Practitioner",
                    "display": "Physician Oncology, MD"
                },
                "recorder": {
                    "reference": "Practitioner/e8ZmxsnZCg8sKXj8JZaWzYg3",
                    "type": "Practitioner",
                    "display": "Physician Oncology, MD"
                },
                "reasonCode": [
                    {
                        "coding": [
                            {
                                "system": "http://snomed.info/sct",
                                "code": "91857003",
                                "display": "Acute lymphoid leukemia, disease (disorder)"
                            },
                            {
                                "system": "http://hl7.org/fhir/sid/icd-9-cm/diagnosis",
                                "code": "204.00",
                                "display": "ALL (acute lymphoblastic leukemia) (CMS/HCC)"
                            },
                            {
                                "system": "http://hl7.org/fhir/sid/icd-10-cm",
                                "code": "C91.00",
                                "display": "ALL (acute lymphoblastic leukemia) (CMS/HCC)"
                            }
                        ],
                        "text": "ALL (acute lymphoblastic leukemia) (CMS/HCC)"
                    }
                ],
                "basedOn": [
                    {
                        "reference": "CarePlan/enfBzBsnfeNFTx7.1z7JfZAc7i2n614h-D.pHwZ9MOAw3",
                        "type": "CarePlan",
                        "display": "(CCG-1961) ALL induction pediatric leukemia"
                    },
                    {
                        "reference": "MedicationRequest/e2r1vj2.s-sKoNgk5LQ8Y0A3",
                        "type": "MedicationRequest",
                        "display": "vinCRIStine (ONCOVIN) injection"
                    }
                ],
                "courseOfTherapyType": {
                    "coding": [
                        {
                            "system": "http://terminology.hl7.org/CodeSystem/medicationrequest-course-of-therapy",
                            "code": "acute",
                            "display": "Short course (acute) therapy"
                        }
                    ],
                    "text": "Short course (acute) therapy"
                },
                "dosageInstruction": [
                    {
                        "text": "2.4 mg (1.5 mg/m2 \u00d7 1.59 m2), Intravenous, ONCE, Mon 4/1/13 at 1130, For 1 dose\nUse caution with PIV administration.  This solution has a pH < 5, or a pH > 9, or an osmolality > 600 mOsm/L.\n",
                        "timing": {
                            "repeat": {
                                "boundsPeriod": {
                                    "start": "2013-04-01T16:30:00Z",
                                    "end": "2013-04-01T16:30:00Z"
                                },
                                "count": 1
                            },
                            "code": {
                                "text": "Once"
                            }
                        },
                        "asNeededBoolean": false,
                        "route": {
                            "coding": [
                                {
                                    "system": "http://snomed.info/sct",
                                    "code": "418114005",
                                    "display": "Intravenous central route (qualifier value)"
                                },
                                {
                                    "system": "urn:oid:1.2.840.114350.1.13.0.1.7.4.798268.7025",
                                    "code": "11",
                                    "display": "Intravenous"
                                }
                            ],
                            "text": "Intravenous"
                        },
                        "doseAndRate": [
                            {
                                "type": {
                                    "coding": [
                                        {
                                            "system": "http://epic.com/CodeSystem/dose-rate-type",
                                            "code": "calculated",
                                            "display": "calculated"
                                        }
                                    ],
                                    "text": "calculated"
                                },
                                "doseQuantity": {
                                    "value": 2.4,
                                    "unit": "mg",
                                    "system": "http://unitsofmeasure.org",
                                    "code": "mg"
                                }
                            },
                            {
                                "type": {
                                    "coding": [
                                        {
                                            "system": "http://epic.com/CodeSystem/dose-rate-type",
                                            "code": "admin-amount",
                                            "display": "admin-amount"
                                        }
                                    ],
                                    "text": "admin-amount"
                                },
                                "doseQuantity": {
                                    "value": 2.4,
                                    "unit": "mL",
                                    "system": "http://unitsofmeasure.org",
                                    "code": "mL"
                                }
                            },
                            {
                                "type": {
                                    "coding": [
                                        {
                                            "system": "http://epic.com/CodeSystem/dose-rate-type",
                                            "code": "ordered",
                                            "display": "ordered"
                                        }
                                    ],
                                    "text": "ordered"
                                },
                                "doseQuantity": {
                                    "value": 1.5,
                                    "unit": "mg/m2",
                                    "system": "http://unitsofmeasure.org",
                                    "code": "mg/m2"
                                }
                            }
                        ]
                    }
                ]
            },
            "search": {
                "mode": "match"
            }
        },
        {
            "link": [
                {
                    "relation": "self",
                    "url": "https://appmarket.epic.com/interconnect-amcurprd-oauth/api/FHIR/R4/MedicationRequest/eON-jEg.6cq5ZKyCblb3SNw3"
                }
            ],
            "fullUrl": "https://appmarket.epic.com/interconnect-amcurprd-oauth/api/FHIR/R4/MedicationRequest/eON-jEg.6cq5ZKyCblb3SNw3",
            "resource": {
                "resourceType": "MedicationRequest",
                "id": "eON-jEg.6cq5ZKyCblb3SNw3",
                "identifier": [
                    {
                        "use": "usual",
                        "system": "urn:oid:1.2.840.114350.1.13.0.1.7.2.798268",
                        "value": "901076"
                    }
                ],
                "status": "stopped",
                "intent": "order",
                "category": [
                    {
                        "coding": [
                            {
                                "system": "http://terminology.hl7.org/CodeSystem/medicationrequest-category",
                                "code": "inpatient",
                                "display": "Inpatient"
                            }
                        ],
                        "text": "Inpatient"
                    }
                ],
                "medicationReference": {
                    "reference": "Medication/eltgz3E0MYQ.9aOwCMarXJAxSiVVS0vKIdBlataXzbt9q-8TLoWnoK0IgoV9hktg03",
                    "display": "dexamethasone (DECADRON) tablet"
                },
                "subject": {
                    "reference": "Patient/erV159kNvlFVqcADSwOamfA3",
                    "display": "Reynolds.Jacob"
                },
                "encounter": {
                    "reference": "Encounter/etY2GsXE8S6R56MRtj.r4jA3",
                    "identifier": {
                        "use": "usual",
                        "system": "urn:oid:1.2.840.114350.1.13.0.1.7.3.698084.8",
                        "value": "15169"
                    },
                    "display": "Hospital Encounter"
                },
                "authoredOn": "2013-04-01T15:53:04Z",
                "requester": {
                    "reference": "Practitioner/e8ZmxsnZCg8sKXj8JZaWzYg3",
                    "type": "Practitioner",
                    "display": "Physician Oncology, MD"
                },
                "recorder": {
                    "reference": "Practitioner/e8ZmxsnZCg8sKXj8JZaWzYg3",
                    "type": "Practitioner",
                    "display": "Physician Oncology, MD"
                },
                "reasonCode": [
                    {
                        "coding": [
                            {
                                "system": "http://snomed.info/sct",
                                "code": "91857003",
                                "display": "Acute lymphoid leukemia, disease (disorder)"
                            },
                            {
                                "system": "http://hl7.org/fhir/sid/icd-9-cm/diagnosis",
                                "code": "204.00",
                                "display": "ALL (acute lymphoblastic leukemia) (CMS/HCC)"
                            },
                            {
                                "system": "http://hl7.org/fhir/sid/icd-10-cm",
                                "code": "C91.00",
                                "display": "ALL (acute lymphoblastic leukemia) (CMS/HCC)"
                            }
                        ],
                        "text": "ALL (acute lymphoblastic leukemia) (CMS/HCC)"
                    }
                ],
                "basedOn": [
                    {
                        "reference": "CarePlan/enfBzBsnfeNFTx7.1z7JfZAc7i2n614h-D.pHwZ9MOAw3",
                        "type": "CarePlan",
                        "display": "(CCG-1961) ALL induction pediatric leukemia"
                    },
                    {
                        "reference": "MedicationRequest/e2ndoviKXiVShhY-S9g0ZJg3",
                        "type": "MedicationRequest",
                        "display": "dexamethasone (DECADRON) tablet"
                    }
                ],
                "courseOfTherapyType": {
                    "coding": [
                        {
                            "system": "http://terminology.hl7.org/CodeSystem/medicationrequest-course-of-therapy",
                            "code": "acute",
                            "display": "Short course (acute) therapy"
                        }
                    ],
                    "text": "Short course (acute) therapy"
                },
                "dosageInstruction": [
                    {
                        "text": "8 mg (5 mg/m2 \u00d7 1.59 m2), Oral, 2 times daily, First dose on Mon 4/1/13 at 1100, For 28 doses\nFood Alert:  effects glucose, sodium and fluids.\n",
                        "timing": {
                            "repeat": {
                                "boundsPeriod": {
                                    "start": "2013-04-01T16:00:00Z",
                                    "end": "2013-04-06T17:43:55Z"
                                },
                                "count": 28,
                                "frequency": 2,
                                "period": 1,
                                "periodUnit": "d"
                            },
                            "code": {
                                "text": "BID"
                            }
                        },
                        "asNeededBoolean": false,
                        "route": {
                            "coding": [
                                {
                                    "system": "http://snomed.info/sct",
                                    "code": "260548002",
                                    "display": "Oral (qualifier value)"
                                },
                                {
                                    "system": "urn:oid:1.2.840.114350.1.13.0.1.7.4.798268.7025",
                                    "code": "15",
                                    "display": "Oral"
                                }
                            ],
                            "text": "Oral"
                        },
                        "doseAndRate": [
                            {
                                "type": {
                                    "coding": [
                                        {
                                            "system": "http://epic.com/CodeSystem/dose-rate-type",
                                            "code": "calculated",
                                            "display": "calculated"
                                        }
                                    ],
                                    "text": "calculated"
                                },
                                "doseQuantity": {
                                    "value": 8,
                                    "unit": "mg",
                                    "system": "http://unitsofmeasure.org",
                                    "code": "mg"
                                }
                            },
                            {
                                "type": {
                                    "coding": [
                                        {
                                            "system": "http://epic.com/CodeSystem/dose-rate-type",
                                            "code": "admin-amount",
                                            "display": "admin-amount"
                                        }
                                    ],
                                    "text": "admin-amount"
                                },
                                "doseQuantity": {
                                    "value": 2,
                                    "unit": "tablet",
                                    "system": "http://unitsofmeasure.org",
                                    "code": "{tbl}"
                                }
                            },
                            {
                                "type": {
                                    "coding": [
                                        {
                                            "system": "http://epic.com/CodeSystem/dose-rate-type",
                                            "code": "ordered",
                                            "display": "ordered"
                                        }
                                    ],
                                    "text": "ordered"
                                },
                                "doseQuantity": {
                                    "value": 5,
                                    "unit": "mg/m2",
                                    "system": "http://unitsofmeasure.org",
                                    "code": "mg/m2"
                                }
                            }
                        ]
                    }
                ]
            },
            "search": {
                "mode": "match"
            }
        },
        {
            "link": [
                {
                    "relation": "self",
                    "url": "https://appmarket.epic.com/interconnect-amcurprd-oauth/api/FHIR/R4/MedicationRequest/ecxkBYqMnjlrchsUDDAG8Ww3"
                }
            ],
            "fullUrl": "https://appmarket.epic.com/interconnect-amcurprd-oauth/api/FHIR/R4/MedicationRequest/ecxkBYqMnjlrchsUDDAG8Ww3",
            "resource": {
                "resourceType": "MedicationRequest",
                "id": "ecxkBYqMnjlrchsUDDAG8Ww3",
                "identifier": [
                    {
                        "use": "usual",
                        "system": "urn:oid:1.2.840.114350.1.13.0.1.7.2.798268",
                        "value": "901073"
                    }
                ],
                "status": "completed",
                "intent": "order",
                "category": [
                    {
                        "coding": [
                            {
                                "system": "http://terminology.hl7.org/CodeSystem/medicationrequest-category",
                                "code": "inpatient",
                                "display": "Inpatient"
                            }
                        ],
                        "text": "Inpatient"
                    }
                ],
                "medicationReference": {
                    "reference": "Medication/eA-Fujv7izgtap1O6aZnA0vAOUM33e.pRM9dtvzb38N1jorniT8G8aKHj8TH37Okl3",
                    "display": "ondansetron (ZOFRAN-ODT) dispersible tablet"
                },
                "subject": {
                    "reference": "Patient/erV159kNvlFVqcADSwOamfA3",
                    "display": "Reynolds.Jacob"
                },
                "encounter": {
                    "reference": "Encounter/etY2GsXE8S6R56MRtj.r4jA3",
                    "identifier": {
                        "use": "usual",
                        "system": "urn:oid:1.2.840.114350.1.13.0.1.7.3.698084.8",
                        "value": "15169"
                    },
                    "display": "Hospital Encounter"
                },
                "authoredOn": "2013-04-01T15:53:03Z",
                "requester": {
                    "reference": "Practitioner/e8ZmxsnZCg8sKXj8JZaWzYg3",
                    "type": "Practitioner",
                    "display": "Physician Oncology, MD"
                },
                "recorder": {
                    "reference": "Practitioner/e8ZmxsnZCg8sKXj8JZaWzYg3",
                    "type": "Practitioner",
                    "display": "Physician Oncology, MD"
                },
                "reasonCode": [
                    {
                        "coding": [
                            {
                                "system": "http://snomed.info/sct",
                                "code": "91857003",
                                "display": "Acute lymphoid leukemia, disease (disorder)"
                            },
                            {
                                "system": "http://hl7.org/fhir/sid/icd-9-cm/diagnosis",
                                "code": "204.00",
                                "display": "ALL (acute lymphoblastic leukemia) (CMS/HCC)"
                            },
                            {
                                "system": "http://hl7.org/fhir/sid/icd-10-cm",
                                "code": "C91.00",
                                "display": "ALL (acute lymphoblastic leukemia) (CMS/HCC)"
                            }
                        ],
                        "text": "ALL (acute lymphoblastic leukemia) (CMS/HCC)"
                    }
                ],
                "basedOn": [
                    {
                        "reference": "CarePlan/enfBzBsnfeNFTx7.1z7JfZAc7i2n614h-D.pHwZ9MOAw3",
                        "type": "CarePlan",
                        "display": "(CCG-1961) ALL induction pediatric leukemia"
                    },
                    {
                        "reference": "MedicationRequest/ex9pYkqtLzJ.VAXVgfDS6pw3",
                        "type": "MedicationRequest",
                        "display": "ondansetron (ZOFRAN-ODT) disintegrating tablet 16 mg"
                    }
                ],
                "courseOfTherapyType": {
                    "coding": [
                        {
                            "system": "http://terminology.hl7.org/CodeSystem/medicationrequest-course-of-therapy",
                            "code": "acute",
                            "display": "Short course (acute) therapy"
                        }
                    ],
                    "text": "Short course (acute) therapy"
                },
                "dosageInstruction": [
                    {
                        "text": "16 mg, Oral, ONCE, Mon 4/1/13 at 1100, For 1 dose\nDo not attempt to push tablet through foil backing. With dry hands peel back  the foil backing and gently remove tablet. Immediately place the tablet on the  where it will dissolve in seconds, then swallow with saliva. Administration with liquid is not necessary.\n",
                        "timing": {
                            "repeat": {
                                "boundsPeriod": {
                                    "start": "2013-04-01T16:00:00Z",
                                    "end": "2013-04-01T16:00:00Z"
                                },
                                "count": 1
                            },
                            "code": {
                                "text": "Once"
                            }
                        },
                        "asNeededBoolean": false,
                        "route": {
                            "coding": [
                                {
                                    "system": "http://snomed.info/sct",
                                    "code": "260548002",
                                    "display": "Oral (qualifier value)"
                                },
                                {
                                    "system": "urn:oid:1.2.840.114350.1.13.0.1.7.4.798268.7025",
                                    "code": "15",
                                    "display": "Oral"
                                }
                            ],
                            "text": "Oral"
                        },
                        "doseAndRate": [
                            {
                                "type": {
                                    "coding": [
                                        {
                                            "system": "http://epic.com/CodeSystem/dose-rate-type",
                                            "code": "calculated",
                                            "display": "calculated"
                                        }
                                    ],
                                    "text": "calculated"
                                },
                                "doseQuantity": {
                                    "value": 16,
                                    "unit": "mg",
                                    "system": "http://unitsofmeasure.org",
                                    "code": "mg"
                                }
                            },
                            {
                                "type": {
                                    "coding": [
                                        {
                                            "system": "http://epic.com/CodeSystem/dose-rate-type",
                                            "code": "admin-amount",
                                            "display": "admin-amount"
                                        }
                                    ],
                                    "text": "admin-amount"
                                },
                                "doseQuantity": {
                                    "value": 2,
                                    "unit": "tablet",
                                    "system": "http://unitsofmeasure.org",
                                    "code": "{tbl}"
                                }
                            },
                            {
                                "type": {
                                    "coding": [
                                        {
                                            "system": "http://epic.com/CodeSystem/dose-rate-type",
                                            "code": "ordered",
                                            "display": "ordered"
                                        }
                                    ],
                                    "text": "ordered"
                                },
                                "doseQuantity": {
                                    "value": 16,
                                    "unit": "mg",
                                    "system": "http://unitsofmeasure.org",
                                    "code": "mg"
                                }
                            }
                        ]
                    }
                ]
            },
            "search": {
                "mode": "match"
            }
        },
        {
            "link": [
                {
                    "relation": "self",
                    "url": "https://appmarket.epic.com/interconnect-amcurprd-oauth/api/FHIR/R4/MedicationRequest/eqBUWzEfE1YD9e1-qsYIocA3"
                }
            ],
            "fullUrl": "https://appmarket.epic.com/interconnect-amcurprd-oauth/api/FHIR/R4/MedicationRequest/eqBUWzEfE1YD9e1-qsYIocA3",
            "resource": {
                "resourceType": "MedicationRequest",
                "id": "eqBUWzEfE1YD9e1-qsYIocA3",
                "identifier": [
                    {
                        "use": "usual",
                        "system": "urn:oid:1.2.840.114350.1.13.0.1.7.2.798268",
                        "value": "901077"
                    }
                ],
                "status": "completed",
                "intent": "order",
                "category": [
                    {
                        "coding": [
                            {
                                "system": "http://terminology.hl7.org/CodeSystem/medicationrequest-category",
                                "code": "inpatient",
                                "display": "Inpatient"
                            }
                        ],
                        "text": "Inpatient"
                    }
                ],
                "medicationReference": {
                    "reference": "Medication/enAyNtoRuKf5fqDGPD3d.lAUZS-O7hadWNNtBHOjAQ37GkcexGrZo0NIjMO-6URfB3",
                    "display": "pegaspargase (ONCASPAR) chemo injection"
                },
                "subject": {
                    "reference": "Patient/erV159kNvlFVqcADSwOamfA3",
                    "display": "Reynolds.Jacob"
                },
                "encounter": {
                    "reference": "Encounter/etY2GsXE8S6R56MRtj.r4jA3",
                    "identifier": {
                        "use": "usual",
                        "system": "urn:oid:1.2.840.114350.1.13.0.1.7.3.698084.8",
                        "value": "15169"
                    },
                    "display": "Hospital Encounter"
                },
                "authoredOn": "2013-04-01T15:53:04Z",
                "requester": {
                    "reference": "Practitioner/e8ZmxsnZCg8sKXj8JZaWzYg3",
                    "type": "Practitioner",
                    "display": "Physician Oncology, MD"
                },
                "recorder": {
                    "reference": "Practitioner/e8ZmxsnZCg8sKXj8JZaWzYg3",
                    "type": "Practitioner",
                    "display": "Physician Oncology, MD"
                },
                "reasonCode": [
                    {
                        "coding": [
                            {
                                "system": "http://snomed.info/sct",
                                "code": "91857003",
                                "display": "Acute lymphoid leukemia, disease (disorder)"
                            },
                            {
                                "system": "http://hl7.org/fhir/sid/icd-9-cm/diagnosis",
                                "code": "204.00",
                                "display": "ALL (acute lymphoblastic leukemia) (CMS/HCC)"
                            },
                            {
                                "system": "http://hl7.org/fhir/sid/icd-10-cm",
                                "code": "C91.00",
                                "display": "ALL (acute lymphoblastic leukemia) (CMS/HCC)"
                            }
                        ],
                        "text": "ALL (acute lymphoblastic leukemia) (CMS/HCC)"
                    }
                ],
                "basedOn": [
                    {
                        "reference": "CarePlan/enfBzBsnfeNFTx7.1z7JfZAc7i2n614h-D.pHwZ9MOAw3",
                        "type": "CarePlan",
                        "display": "(CCG-1961) ALL induction pediatric leukemia"
                    },
                    {
                        "reference": "MedicationRequest/epYycaKSFXE1nx-islrvnlw3",
                        "type": "MedicationRequest",
                        "display": "pegaspargase injection"
                    }
                ],
                "courseOfTherapyType": {
                    "coding": [
                        {
                            "system": "http://terminology.hl7.org/CodeSystem/medicationrequest-course-of-therapy",
                            "code": "acute",
                            "display": "Short course (acute) therapy"
                        }
                    ],
                    "text": "Short course (acute) therapy"
                },
                "dosageInstruction": [
                    {
                        "text": "3,975 Int'l Units (2,500 Int'l Units/m2 \u00d7 1.59 m2), Intramuscular, Every 24 hours, First dose on Thu 4/4/13 at 1000, For 1 dose\nDay 4.  Oncaspar = pegASPARgase.  Observe for signs of allergic response for at least 2 hours.\n",
                        "timing": {
                            "repeat": {
                                "boundsPeriod": {
                                    "start": "2013-04-04T15:00:00Z",
                                    "end": "2013-04-04T15:00:00Z"
                                },
                                "count": 1,
                                "frequency": 1,
                                "period": 24,
                                "periodUnit": "h"
                            },
                            "code": {
                                "text": "Every 24 hours"
                            }
                        },
                        "asNeededBoolean": false,
                        "route": {
                            "coding": [
                                {
                                    "system": "urn:oid:1.2.840.114350.1.13.0.1.7.4.798268.7025",
                                    "code": "6",
                                    "display": "Intramuscular"
                                }
                            ],
                            "text": "Intramuscular"
                        },
                        "doseAndRate": [
                            {
                                "type": {
                                    "coding": [
                                        {
                                            "system": "http://epic.com/CodeSystem/dose-rate-type",
                                            "code": "calculated",
                                            "display": "calculated"
                                        }
                                    ],
                                    "text": "calculated"
                                },
                                "doseQuantity": {
                                    "value": 3975,
                                    "unit": "Int'l Units",
                                    "system": "http://unitsofmeasure.org",
                                    "code": "[iU]"
                                }
                            },
                            {
                                "type": {
                                    "coding": [
                                        {
                                            "system": "http://epic.com/CodeSystem/dose-rate-type",
                                            "code": "admin-amount",
                                            "display": "admin-amount"
                                        }
                                    ],
                                    "text": "admin-amount"
                                },
                                "doseQuantity": {
                                    "value": 5.3,
                                    "unit": "mL",
                                    "system": "http://unitsofmeasure.org",
                                    "code": "mL"
                                }
                            },
                            {
                                "type": {
                                    "coding": [
                                        {
                                            "system": "http://epic.com/CodeSystem/dose-rate-type",
                                            "code": "ordered",
                                            "display": "ordered"
                                        }
                                    ],
                                    "text": "ordered"
                                },
                                "doseQuantity": {
                                    "value": 2500,
                                    "unit": "Int'l Units/m2",
                                    "system": "http://unitsofmeasure.org",
                                    "code": "[iU]/m2"
                                }
                            }
                        ]
                    }
                ]
            },
            "search": {
                "mode": "match"
            }
        },
        {
            "link": [
                {
                    "relation": "self",
                    "url": "https://appmarket.epic.com/interconnect-amcurprd-oauth/api/FHIR/R4/MedicationRequest/ex..NXahuRruIO-.TQUKWEw3"
                }
            ],
            "fullUrl": "https://appmarket.epic.com/interconnect-amcurprd-oauth/api/FHIR/R4/MedicationRequest/ex..NXahuRruIO-.TQUKWEw3",
            "resource": {
                "resourceType": "MedicationRequest",
                "id": "ex..NXahuRruIO-.TQUKWEw3",
                "identifier": [
                    {
                        "use": "usual",
                        "system": "urn:oid:1.2.840.114350.1.13.0.1.7.2.798268",
                        "value": "901074"
                    }
                ],
                "status": "completed",
                "intent": "order",
                "category": [
                    {
                        "coding": [
                            {
                                "system": "http://terminology.hl7.org/CodeSystem/medicationrequest-category",
                                "code": "inpatient",
                                "display": "Inpatient"
                            }
                        ],
                        "text": "Inpatient"
                    }
                ],
                "medicationReference": {
                    "reference": "Medication/eQcIlDMRMXESovWo6j4QMWRRzTcm7CP5kg-gpr3ELhTS7TVMCPTYZY5m1QNi2.Hym3",
                    "display": "CYTARABINE LIPOSOME IT"
                },
                "subject": {
                    "reference": "Patient/erV159kNvlFVqcADSwOamfA3",
                    "display": "Reynolds.Jacob"
                },
                "encounter": {
                    "reference": "Encounter/etY2GsXE8S6R56MRtj.r4jA3",
                    "identifier": {
                        "use": "usual",
                        "system": "urn:oid:1.2.840.114350.1.13.0.1.7.3.698084.8",
                        "value": "15169"
                    },
                    "display": "Hospital Encounter"
                },
                "authoredOn": "2013-04-01T15:53:04Z",
                "requester": {
                    "reference": "Practitioner/e8ZmxsnZCg8sKXj8JZaWzYg3",
                    "type": "Practitioner",
                    "display": "Physician Oncology, MD"
                },
                "recorder": {
                    "reference": "Practitioner/e8ZmxsnZCg8sKXj8JZaWzYg3",
                    "type": "Practitioner",
                    "display": "Physician Oncology, MD"
                },
                "reasonCode": [
                    {
                        "coding": [
                            {
                                "system": "http://snomed.info/sct",
                                "code": "91857003",
                                "display": "Acute lymphoid leukemia, disease (disorder)"
                            },
                            {
                                "system": "http://hl7.org/fhir/sid/icd-9-cm/diagnosis",
                                "code": "204.00",
                                "display": "ALL (acute lymphoblastic leukemia) (CMS/HCC)"
                            },
                            {
                                "system": "http://hl7.org/fhir/sid/icd-10-cm",
                                "code": "C91.00",
                                "display": "ALL (acute lymphoblastic leukemia) (CMS/HCC)"
                            }
                        ],
                        "text": "ALL (acute lymphoblastic leukemia) (CMS/HCC)"
                    }
                ],
                "basedOn": [
                    {
                        "reference": "CarePlan/enfBzBsnfeNFTx7.1z7JfZAc7i2n614h-D.pHwZ9MOAw3",
                        "type": "CarePlan",
                        "display": "(CCG-1961) ALL induction pediatric leukemia"
                    },
                    {
                        "reference": "MedicationRequest/eZO1YocSQ-.rs0GEqU0-SJQ3",
                        "type": "MedicationRequest",
                        "display": "cytarabine intrathecal chemo 70 mg"
                    }
                ],
                "courseOfTherapyType": {
                    "coding": [
                        {
                            "system": "http://terminology.hl7.org/CodeSystem/medicationrequest-course-of-therapy",
                            "code": "acute",
                            "display": "Short course (acute) therapy"
                        }
                    ],
                    "text": "Short course (acute) therapy"
                },
                "dosageInstruction": [
                    {
                        "text": "70 mg, Intrathecal, Once, Mon 4/1/13 at 1100, For 1 dose\nAge less than 1 year = Dose: cytarabine 20 mg. Age 1 - 1.99 years = Dose: cytarabine 30 mg. Age 2 - 2.99 years = Dose: cytarabine 50 mg. Age greater than or equal to 3 years = Dose: cytarabine 70 mg.\n",
                        "timing": {
                            "repeat": {
                                "boundsPeriod": {
                                    "start": "2013-04-01T16:00:00Z",
                                    "end": "2013-04-01T16:00:00Z"
                                },
                                "count": 1
                            },
                            "code": {
                                "text": "Once"
                            }
                        },
                        "asNeededBoolean": false,
                        "route": {
                            "coding": [
                                {
                                    "system": "urn:oid:1.2.840.114350.1.13.0.1.7.4.798268.7025",
                                    "code": "9",
                                    "display": "Intrathecal"
                                }
                            ],
                            "text": "Intrathecal"
                        },
                        "doseAndRate": [
                            {
                                "type": {
                                    "coding": [
                                        {
                                            "system": "http://epic.com/CodeSystem/dose-rate-type",
                                            "code": "calculated",
                                            "display": "calculated"
                                        }
                                    ],
                                    "text": "calculated"
                                },
                                "doseQuantity": {
                                    "value": 70,
                                    "unit": "mg",
                                    "system": "http://unitsofmeasure.org",
                                    "code": "mg"
                                }
                            },
                            {
                                "type": {
                                    "coding": [
                                        {
                                            "system": "http://epic.com/CodeSystem/dose-rate-type",
                                            "code": "admin-amount",
                                            "display": "admin-amount"
                                        }
                                    ],
                                    "text": "admin-amount"
                                },
                                "doseQuantity": {
                                    "value": 1.4,
                                    "unit": "mL",
                                    "system": "http://unitsofmeasure.org",
                                    "code": "mL"
                                }
                            },
                            {
                                "type": {
                                    "coding": [
                                        {
                                            "system": "http://epic.com/CodeSystem/dose-rate-type",
                                            "code": "ordered",
                                            "display": "ordered"
                                        }
                                    ],
                                    "text": "ordered"
                                },
                                "doseQuantity": {
                                    "value": 70,
                                    "unit": "mg",
                                    "system": "http://unitsofmeasure.org",
                                    "code": "mg"
                                }
                            }
                        ]
                    }
                ]
            },
            "search": {
                "mode": "match"
            }
        },
        {
            "link": [
                {
                    "relation": "self",
                    "url": "https://appmarket.epic.com/interconnect-amcurprd-oauth/api/FHIR/R4/Medication/eA-Fujv7izgtap1O6aZnA0vAOUM33e.pRM9dtvzb38N1jorniT8G8aKHj8TH37Okl3"
                }
            ],
            "fullUrl": "https://appmarket.epic.com/interconnect-amcurprd-oauth/api/FHIR/R4/Medication/eA-Fujv7izgtap1O6aZnA0vAOUM33e.pRM9dtvzb38N1jorniT8G8aKHj8TH37Okl3",
            "resource": {
                "resourceType": "Medication",
                "id": "eA-Fujv7izgtap1O6aZnA0vAOUM33e.pRM9dtvzb38N1jorniT8G8aKHj8TH37Okl3",
                "code": {
                    "coding": [
                        {
                            "system": "urn:oid:2.16.840.1.113883.6.253",
                            "code": "64696"
                        },
                        {
                            "system": "urn:oid:2.16.840.1.113883.6.68",
                            "code": "50250065007240"
                        },
                        {
                            "system": "urn:oid:2.16.840.1.113883.6.162",
                            "code": "25097"
                        },
                        {
                            "system": "http://www.nlm.nih.gov/research/umls/rxnorm",
                            "code": "26225"
                        },
                        {
                            "system": "http://www.nlm.nih.gov/research/umls/rxnorm",
                            "code": "312087"
                        }
                    ],
                    "text": "ondansetron (ZOFRAN-ODT) dispersible tablet"
                },
                "form": {
                    "coding": [
                        {
                            "system": "urn:oid:1.2.840.114350.1.13.0.1.7.4.698288.310",
                            "code": "TBDP",
                            "display": "tablet dispersible"
                        }
                    ],
                    "text": "tablet dispersible"
                },
                "ingredient": [
                    {
                        "itemCodeableConcept": {
                            "coding": [
                                {
                                    "system": "urn:oid:2.16.840.1.113883.6.253",
                                    "code": "64696"
                                },
                                {
                                    "system": "urn:oid:2.16.840.1.113883.6.68",
                                    "code": "50250065007240"
                                },
                                {
                                    "system": "urn:oid:2.16.840.1.113883.6.162",
                                    "code": "25097"
                                },
                                {
                                    "system": "http://www.nlm.nih.gov/research/umls/rxnorm",
                                    "code": "26225"
                                },
                                {
                                    "system": "http://www.nlm.nih.gov/research/umls/rxnorm",
                                    "code": "312087"
                                }
                            ],
                            "text": "ondansetron (ZOFRAN-ODT) dispersible tablet"
                        },
                        "strength": {
                            "numerator": {
                                "value": 8,
                                "unit": "MG",
                                "system": "http://unitsofmeasure.org",
                                "code": "mg"
                            },
                            "denominator": {
                                "value": 8,
                                "unit": "MG",
                                "system": "http://unitsofmeasure.org",
                                "code": "mg"
                            }
                        }
                    }
                ]
            },
            "search": {
                "mode": "include"
            }
        },
        {
            "link": [
                {
                    "relation": "self",
                    "url": "https://appmarket.epic.com/interconnect-amcurprd-oauth/api/FHIR/R4/Medication/eQcIlDMRMXESovWo6j4QMWRRzTcm7CP5kg-gpr3ELhTS7TVMCPTYZY5m1QNi2.Hym3"
                }
            ],
            "fullUrl": "https://appmarket.epic.com/interconnect-amcurprd-oauth/api/FHIR/R4/Medication/eQcIlDMRMXESovWo6j4QMWRRzTcm7CP5kg-gpr3ELhTS7TVMCPTYZY5m1QNi2.Hym3",
            "resource": {
                "resourceType": "Medication",
                "id": "eQcIlDMRMXESovWo6j4QMWRRzTcm7CP5kg-gpr3ELhTS7TVMCPTYZY5m1QNi2.Hym3",
                "code": {
                    "coding": [
                        {
                            "system": "urn:oid:2.16.840.1.113883.6.68",
                            "code": "21300010301825"
                        },
                        {
                            "system": "http://www.nlm.nih.gov/research/umls/rxnorm",
                            "code": "968804"
                        }
                    ],
                    "text": "CYTARABINE LIPOSOME IT"
                },
                "ingredient": [
                    {
                        "itemCodeableConcept": {
                            "coding": [
                                {
                                    "system": "urn:oid:2.16.840.1.113883.6.68",
                                    "code": "21300010301825"
                                },
                                {
                                    "system": "http://www.nlm.nih.gov/research/umls/rxnorm",
                                    "code": "968804"
                                }
                            ],
                            "text": "CYTARABINE LIPOSOME IT"
                        }
                    }
                ]
            },
            "search": {
                "mode": "include"
            }
        },
        {
            "link": [
                {
                    "relation": "self",
                    "url": "https://appmarket.epic.com/interconnect-amcurprd-oauth/api/FHIR/R4/Medication/eltgz3E0MYQ.9aOwCMarXJAxSiVVS0vKIdBlataXzbt9q-8TLoWnoK0IgoV9hktg03"
                }
            ],
            "fullUrl": "https://appmarket.epic.com/interconnect-amcurprd-oauth/api/FHIR/R4/Medication/eltgz3E0MYQ.9aOwCMarXJAxSiVVS0vKIdBlataXzbt9q-8TLoWnoK0IgoV9hktg03",
            "resource": {
                "resourceType": "Medication",
                "id": "eltgz3E0MYQ.9aOwCMarXJAxSiVVS0vKIdBlataXzbt9q-8TLoWnoK0IgoV9hktg03",
                "code": {
                    "coding": [
                        {
                            "system": "urn:oid:2.16.840.1.113883.6.253",
                            "code": "6307"
                        },
                        {
                            "system": "urn:oid:2.16.840.1.113883.6.68",
                            "code": "22100020000325"
                        },
                        {
                            "system": "urn:oid:2.16.840.1.113883.6.162",
                            "code": "00653"
                        },
                        {
                            "system": "http://www.nlm.nih.gov/research/umls/rxnorm",
                            "code": "3264"
                        },
                        {
                            "system": "http://www.nlm.nih.gov/research/umls/rxnorm",
                            "code": "197579"
                        }
                    ],
                    "text": "dexamethasone (DECADRON) tablet"
                },
                "form": {
                    "coding": [
                        {
                            "system": "urn:oid:1.2.840.114350.1.13.0.1.7.4.698288.310",
                            "code": "TABS",
                            "display": "tablet"
                        }
                    ],
                    "text": "tablet"
                },
                "ingredient": [
                    {
                        "itemCodeableConcept": {
                            "coding": [
                                {
                                    "system": "urn:oid:2.16.840.1.113883.6.253",
                                    "code": "6307"
                                },
                                {
                                    "system": "urn:oid:2.16.840.1.113883.6.68",
                                    "code": "22100020000325"
                                },
                                {
                                    "system": "urn:oid:2.16.840.1.113883.6.162",
                                    "code": "00653"
                                },
                                {
                                    "system": "http://www.nlm.nih.gov/research/umls/rxnorm",
                                    "code": "3264"
                                },
                                {
                                    "system": "http://www.nlm.nih.gov/research/umls/rxnorm",
                                    "code": "197579"
                                }
                            ],
                            "text": "dexamethasone (DECADRON) tablet"
                        },
                        "strength": {
                            "numerator": {
                                "value": 1,
                                "unit": "MG",
                                "system": "http://unitsofmeasure.org",
                                "code": "mg"
                            },
                            "denominator": {
                                "value": 1,
                                "unit": "MG",
                                "system": "http://unitsofmeasure.org",
                                "code": "mg"
                            }
                        }
                    }
                ]
            },
            "search": {
                "mode": "include"
            }
        },
        {
            "link": [
                {
                    "relation": "self",
                    "url": "https://appmarket.epic.com/interconnect-amcurprd-oauth/api/FHIR/R4/Medication/enAyNtoRuKf5fqDGPD3d.lAUZS-O7hadWNNtBHOjAQ37GkcexGrZo0NIjMO-6URfB3"
                }
            ],
            "fullUrl": "https://appmarket.epic.com/interconnect-amcurprd-oauth/api/FHIR/R4/Medication/enAyNtoRuKf5fqDGPD3d.lAUZS-O7hadWNNtBHOjAQ37GkcexGrZo0NIjMO-6URfB3",
            "resource": {
                "resourceType": "Medication",
                "id": "enAyNtoRuKf5fqDGPD3d.lAUZS-O7hadWNNtBHOjAQ37GkcexGrZo0NIjMO-6URfB3",
                "code": {
                    "coding": [
                        {
                            "system": "urn:oid:2.16.840.1.113883.6.253",
                            "code": "176234"
                        },
                        {
                            "system": "urn:oid:2.16.840.1.113883.6.68",
                            "code": "21250060002020"
                        },
                        {
                            "system": "http://www.nlm.nih.gov/research/umls/rxnorm",
                            "code": "34132"
                        },
                        {
                            "system": "http://www.nlm.nih.gov/research/umls/rxnorm",
                            "code": "240906"
                        },
                        {
                            "system": "urn:oid:2.16.840.1.113883.6.162",
                            "code": "10860"
                        }
                    ],
                    "text": "pegaspargase (ONCASPAR) chemo injection"
                },
                "form": {
                    "coding": [
                        {
                            "system": "urn:oid:1.2.840.114350.1.13.0.1.7.4.698288.310",
                            "code": "SOLN",
                            "display": "solution"
                        }
                    ],
                    "text": "solution"
                },
                "ingredient": [
                    {
                        "itemCodeableConcept": {
                            "coding": [
                                {
                                    "system": "urn:oid:2.16.840.1.113883.6.253",
                                    "code": "176234"
                                },
                                {
                                    "system": "urn:oid:2.16.840.1.113883.6.68",
                                    "code": "21250060002020"
                                },
                                {
                                    "system": "http://www.nlm.nih.gov/research/umls/rxnorm",
                                    "code": "34132"
                                },
                                {
                                    "system": "http://www.nlm.nih.gov/research/umls/rxnorm",
                                    "code": "240906"
                                },
                                {
                                    "system": "urn:oid:2.16.840.1.113883.6.162",
                                    "code": "10860"
                                }
                            ],
                            "text": "pegaspargase (ONCASPAR) chemo injection"
                        },
                        "strength": {
                            "numerator": {
                                "value": 750,
                                "unit": "UNIT/ML"
                            },
                            "denominator": {
                                "value": 750,
                                "unit": "UNIT/ML"
                            }
                        }
                    }
                ]
            },
            "search": {
                "mode": "include"
            }
        },
        {
            "link": [
                {
                    "relation": "self",
                    "url": "https://appmarket.epic.com/interconnect-amcurprd-oauth/api/FHIR/R4/Patient/erV159kNvlFVqcADSwOamfA3"
                }
            ],
            "fullUrl": "https://appmarket.epic.com/interconnect-amcurprd-oauth/api/FHIR/R4/Patient/erV159kNvlFVqcADSwOamfA3",
            "resource": {
                "resourceType": "Patient",
                "id": "erV159kNvlFVqcADSwOamfA3",
                "extension": [
                    {
                        "extension": [
                            {
                                "valueCoding": {
                                    "system": "urn:oid:2.16.840.1.113883.6.238",
                                    "code": "2106-3",
                                    "display": "White"
                                },
                                "url": "ombCategory"
                            },
                            {
                                "valueString": "White",
                                "url": "text"
                            }
                        ],
                        "url": "http://hl7.org/fhir/us/core/StructureDefinition/us-core-race"
                    },
                    {
                        "extension": [
                            {
                                "valueCoding": {
                                    "system": "urn:oid:2.16.840.1.113883.6.238",
                                    "code": "2186-5",
                                    "display": "Not Hispanic or Latino"
                                },
                                "url": "ombCategory"
                            },
                            {
                                "valueString": "Not Hispanic or Latino",
                                "url": "text"
                            }
                        ],
                        "url": "http://hl7.org/fhir/us/core/StructureDefinition/us-core-ethnicity"
                    },
                    {
                        "valueCodeableConcept": {
                            "coding": [
                                {
                                    "system": "urn:oid:1.2.840.114350.1.13.0.1.7.10.698084.130.657370.19999000",
                                    "code": "male",
                                    "display": "male"
                                }
                            ]
                        },
                        "url": "http://open.epic.com/FHIR/StructureDefinition/extension/legal-sex"
                    },
                    {
                        "valueCodeableConcept": {
                            "coding": [
                                {
                                    "system": "urn:oid:1.2.840.114350.1.13.0.1.7.10.698084.130.657370.19999000",
                                    "code": "male",
                                    "display": "male"
                                }
                            ]
                        },
                        "url": "http://open.epic.com/FHIR/StructureDefinition/extension/sex-for-clinical-use"
                    },
                    {
                        "valueCode": "M",
                        "url": "http://hl7.org/fhir/us/core/StructureDefinition/us-core-birthsex"
                    }
                ],
                "identifier": [
                    {
                        "use": "usual",
                        "system": "urn:oid:2.16.840.1.113883.4.1",
                        "value": "234-87-6467"
                    },
                    {
                        "use": "usual",
                        "type": {
                            "text": "CEID"
                        },
                        "system": "urn:epic:apporchard.curprod",
                        "value": "AO1VCTF564R3WVK"
                    },
                    {
                        "use": "usual",
                        "type": {
                            "text": "EPIC"
                        },
                        "system": "urn:oid:1.2.840.114350.1.1",
                        "value": "E237816"
                    },
                    {
                        "use": "usual",
                        "type": {
                            "text": "EXTERNAL"
                        },
                        "system": "urn:oid:1.2.840.114350.1.13.0.1.7.2.698084",
                        "value": "Z5323"
                    },
                    {
                        "use": "usual",
                        "type": {
                            "text": "FHIR"
                        },
                        "system": "http://open.epic.com/FHIR/StructureDefinition/patient-dstu2-fhir-id",
                        "value": "TBZLaHjxpe9Hurx5Nhuy.GQ-5oxhI8uOvRhbU4cLUw2UB"
                    },
                    {
                        "use": "usual",
                        "type": {
                            "text": "FHIR STU3"
                        },
                        "system": "http://open.epic.com/FHIR/StructureDefinition/patient-fhir-id",
                        "value": "erV159kNvlFVqcADSwOamfA3"
                    },
                    {
                        "use": "usual",
                        "type": {
                            "text": "INTERNAL"
                        },
                        "system": "urn:oid:1.2.840.114350.1.13.0.1.7.2.698084",
                        "value": "     Z5323"
                    },
                    {
                        "use": "usual",
                        "type": {
                            "text": "MRN"
                        },
                        "system": "urn:oid:1.2.840.114350.1.13.0.1.7.5.737384.14",
                        "value": "31559"
                    }
                ],
                "active": true,
                "name": [
                    {
                        "use": "official",
                        "text": "Reynolds.Jacob",
                        "family": "Reynolds.Jacob"
                    },
                    {
                        "use": "usual",
                        "text": "Reynolds.Jacob",
                        "family": "Reynolds.Jacob"
                    }
                ],
                "telecom": [
                    {
                        "system": "phone",
                        "value": "608-456-0912",
                        "use": "home"
                    }
                ],
                "gender": "male",
                "birthDate": "2000-06-06",
                "deceasedBoolean": false,
                "address": [
                    {
                        "use": "home",
                        "line": [
                            "2314 Dahlk Cir"
                        ],
                        "city": "VERONA",
                        "district": "DANE",
                        "state": "WI",
                        "postalCode": "53593",
                        "country": "US"
                    }
                ],
                "communication": [
                    {
                        "language": {
                            "coding": [
                                {
                                    "system": "urn:ietf:bcp:47",
                                    "code": "en",
                                    "display": "English"
                                }
                            ],
                            "text": "English"
                        },
                        "preferred": true
                    }
                ],
                "managingOrganization": {
                    "reference": "Organization/enRyWnSP963FYDpoks4NHOA3",
                    "display": "Epic Hospital System"
                }
            },
            "search": {
                "mode": "include"
            }
        },
        {
            "link": [
                {
                    "relation": "self",
                    "url": "https://appmarket.epic.com/interconnect-amcurprd-oauth/api/FHIR/R4/Encounter/etY2GsXE8S6R56MRtj.r4jA3"
                }
            ],
            "fullUrl": "https://appmarket.epic.com/interconnect-amcurprd-oauth/api/FHIR/R4/Encounter/etY2GsXE8S6R56MRtj.r4jA3",
            "resource": {
                "resourceType": "Encounter",
                "id": "etY2GsXE8S6R56MRtj.r4jA3",
                "identifier": [
                    {
                        "use": "usual",
                        "system": "urn:oid:1.2.840.114350.1.13.0.1.7.3.698084.8",
                        "value": "15169"
                    }
                ],
                "status": "finished",
                "class": {
                    "system": "urn:oid:1.2.840.114350.1.72.1.7.7.10.696784.13260",
                    "code": "6",
                    "display": "Discharge"
                },
                "type": [
                    {
                        "coding": [
                            {
                                "system": "urn:oid:1.2.840.114350.1.13.0.1.7.10.698084.10110",
                                "code": "101",
                                "display": "Inpatient"
                            }
                        ],
                        "text": "Inpatient"
                    },
                    {
                        "coding": [
                            {
                                "system": "urn:oid:1.2.840.114350.1.13.0.1.7.10.698084.30",
                                "code": "3",
                                "display": "Hospital Encounter"
                            }
                        ],
                        "text": "Hospital Encounter"
                    },
                    {
                        "coding": [
                            {
                                "system": "urn:oid:1.2.840.114350.1.13.0.1.7.10.698084.18875",
                                "code": "3",
                                "display": "Elective"
                            }
                        ],
                        "text": "Elective"
                    }
                ],
                "serviceType": {
                    "coding": [
                        {
                            "system": "urn:oid:1.2.840.114350.1.13.0.1.7.10.698084.18886",
                            "code": "118",
                            "display": "Oncology"
                        }
                    ],
                    "text": "Oncology"
                },
                "subject": {
                    "reference": "Patient/erV159kNvlFVqcADSwOamfA3",
                    "display": "Reynolds.Jacob"
                },
                "episodeOfCare": [
                    {
                        "reference": "EpisodeOfCare/e-89JjAT8BV6bZITjAKMCMQ3",
                        "type": "EpisodeOfCare",
                        "display": "ONCOLOGY TREATMENT"
                    }
                ],
                "participant": [
                    {
                        "type": [
                            {
                                "coding": [
                                    {
                                        "system": "http://hl7.org/fhir/v3/ParticipationType",
                                        "code": "ADM",
                                        "display": "admitter"
                                    }
                                ],
                                "text": "admitter"
                            }
                        ],
                        "individual": {
                            "reference": "Practitioner/e8ZmxsnZCg8sKXj8JZaWzYg3",
                            "type": "Practitioner",
                            "display": "Physician Oncology, MD"
                        }
                    },
                    {
                        "type": [
                            {
                                "coding": [
                                    {
                                        "system": "http://hl7.org/fhir/v3/ParticipationType",
                                        "code": "DIS",
                                        "display": "discharger"
                                    }
                                ],
                                "text": "discharger"
                            }
                        ],
                        "individual": {
                            "reference": "Practitioner/e8ZmxsnZCg8sKXj8JZaWzYg3",
                            "type": "Practitioner",
                            "display": "Physician Oncology, MD"
                        }
                    },
                    {
                        "type": [
                            {
                                "coding": [
                                    {
                                        "system": "http://hl7.org/fhir/v3/ParticipationType",
                                        "code": "ATND",
                                        "display": "attender"
                                    }
                                ],
                                "text": "attender"
                            }
                        ],
                        "period": {
                            "start": "2010-04-01T15:38:00Z",
                            "end": "2010-04-06T16:43:52Z"
                        },
                        "individual": {
                            "reference": "Practitioner/e8ZmxsnZCg8sKXj8JZaWzYg3",
                            "type": "Practitioner",
                            "display": "Physician Oncology, MD"
                        }
                    }
                ],
                "period": {
                    "start": "2010-04-01T15:38:00Z",
                    "end": "2010-04-06T16:43:00Z"
                },
                "diagnosis": [
                    {
                        "condition": {
                            "reference": "Condition/eJ6dOYAHlMvHX08Mo0C5VCw3",
                            "display": "ALL (acute lymphoblastic leukemia) (CMS/HCC)"
                        }
                    }
                ],
                "account": [
                    {
                        "identifier": {
                            "system": "urn:oid:1.2.840.114350.1.13.0.1.7.2.726582",
                            "value": "932"
                        },
                        "display": "REYNOLDS.JACOB"
                    }
                ],
                "hospitalization": {
                    "extension": [
                        {
                            "valueDateTime": "2010-04-01T15:38:00Z",
                            "url": "http://open.epic.com/FHIR/StructureDefinition/extension/ip-admit-datetime"
                        }
                    ],
                    "admitSource": {
                        "coding": [
                            {
                                "system": "urn:oid:1.2.840.114350.1.13.0.1.7.10.698084.10310",
                                "code": "9",
                                "display": "Information Not Available"
                            }
                        ],
                        "text": "Information Not Available"
                    },
                    "dischargeDisposition": {
                        "coding": [
                            {
                                "system": "urn:oid:1.2.840.114350.1.13.0.1.7.10.698084.18888",
                                "code": "1",
                                "display": "Home or Self Care"
                            }
                        ],
                        "text": "Home or Self Care"
                    }
                },
                "location": [
                    {
                        "location": {
                            "reference": "Location/eF8u57ONjt12Y3P3wS-8D.JicUsf27bNaDdluIbh-aO03",
                            "display": "EMH Pediatric Intensive Care"
                        },
                        "period": {
                            "start": "2010-04-01T15:38:00Z",
                            "end": "2010-04-06T16:43:00Z"
                        }
                    },
                    {
                        "location": {
                            "reference": "Location/eF8u57ONjt12Y3P3wS-8D.JicUsf27bNaDdluIbh-aO03",
                            "display": "EMH Pediatric Intensive Care"
                        }
                    },
                    {
                        "location": {
                            "reference": "Location/eQSOrLdbVrMRc68KBcTBG4A3",
                            "display": "Epic Hospital System"
                        }
                    },
                    {
                        "location": {
                            "reference": "Location/ecZ6Spmtd17T9zyDn5.IFeg3",
                            "display": "203"
                        },
                        "physicalType": {
                            "coding": [
                                {
                                    "system": "http://terminology.hl7.org/CodeSystem/location-physical-type",
                                    "code": "ro",
                                    "display": "Room"
                                }
                            ],
                            "text": "Room"
                        }
                    },
                    {
                        "location": {
                            "identifier": {
                                "system": "urn:oid:1.2.840.114350.1.13.0.1.7.2.666968",
                                "value": "192"
                            },
                            "display": "203-02"
                        },
                        "physicalType": {
                            "coding": [
                                {
                                    "system": "http://terminology.hl7.org/CodeSystem/location-physical-type",
                                    "code": "bd",
                                    "display": "Bed"
                                }
                            ],
                            "text": "Bed"
                        }
                    }
                ]
            },
            "search": {
                "mode": "include"
            }
        },
        {
            "link": [
                {
                    "relation": "self",
                    "url": "https://appmarket.epic.com/interconnect-amcurprd-oauth/api/FHIR/R4/Medication/ewwZ6SC4SpVzVkpk7IqIuDpW62.F36-o-hD9eyqr0Fx-tzxnfkYcWUWXzTM53zUd63"
                }
            ],
            "fullUrl": "https://appmarket.epic.com/interconnect-amcurprd-oauth/api/FHIR/R4/Medication/ewwZ6SC4SpVzVkpk7IqIuDpW62.F36-o-hD9eyqr0Fx-tzxnfkYcWUWXzTM53zUd63",
            "resource": {
                "resourceType": "Medication",
                "id": "ewwZ6SC4SpVzVkpk7IqIuDpW62.F36-o-hD9eyqr0Fx-tzxnfkYcWUWXzTM53zUd63",
                "code": {
                    "coding": [
                        {
                            "system": "urn:oid:2.16.840.1.113883.6.253",
                            "code": "23426"
                        },
                        {
                            "system": "urn:oid:2.16.840.1.113883.6.68",
                            "code": "21500020102005"
                        },
                        {
                            "system": "urn:oid:2.16.840.1.113883.6.162",
                            "code": "00622"
                        },
                        {
                            "system": "http://www.nlm.nih.gov/research/umls/rxnorm",
                            "code": "11202"
                        },
                        {
                            "system": "http://www.nlm.nih.gov/research/umls/rxnorm",
                            "code": "11203"
                        },
                        {
                            "system": "http://www.nlm.nih.gov/research/umls/rxnorm",
                            "code": "1863343"
                        },
                        {
                            "system": "http://www.nlm.nih.gov/research/umls/rxnorm",
                            "code": "1863354"
                        }
                    ],
                    "text": "vinCRIStine (ONCOVIN) chemo injection"
                },
                "form": {
                    "coding": [
                        {
                            "system": "urn:oid:1.2.840.114350.1.13.0.1.7.4.698288.310",
                            "code": "SOLN",
                            "display": "solution"
                        }
                    ],
                    "text": "solution"
                },
                "ingredient": [
                    {
                        "itemCodeableConcept": {
                            "coding": [
                                {
                                    "system": "urn:oid:2.16.840.1.113883.6.253",
                                    "code": "23426"
                                },
                                {
                                    "system": "urn:oid:2.16.840.1.113883.6.68",
                                    "code": "21500020102005"
                                },
                                {
                                    "system": "urn:oid:2.16.840.1.113883.6.162",
                                    "code": "00622"
                                },
                                {
                                    "system": "http://www.nlm.nih.gov/research/umls/rxnorm",
                                    "code": "11202"
                                },
                                {
                                    "system": "http://www.nlm.nih.gov/research/umls/rxnorm",
                                    "code": "11203"
                                },
                                {
                                    "system": "http://www.nlm.nih.gov/research/umls/rxnorm",
                                    "code": "1863343"
                                },
                                {
                                    "system": "http://www.nlm.nih.gov/research/umls/rxnorm",
                                    "code": "1863354"
                                }
                            ],
                            "text": "vinCRIStine (ONCOVIN) chemo injection"
                        },
                        "strength": {
                            "numerator": {
                                "value": 1,
                                "unit": "MG/ML",
                                "system": "http://unitsofmeasure.org",
                                "code": "mg/mL"
                            },
                            "denominator": {
                                "value": 1,
                                "unit": "MG/ML",
                                "system": "http://unitsofmeasure.org",
                                "code": "mg/mL"
                            }
                        }
                    }
                ]
            },
            "search": {
                "mode": "include"
            }
        }
    ]
}