{
    "resourceType": "Bundle",
    "type": "searchset",
    "total": 14,
    "link": [
        {
            "relation": "self",
            "url": "https://appmarket.epic.com/interconnect-amcurprd-oauth/api/FHIR/R4/MedicationRequest?_include=MedicationRequest:medicationReference&_include=MedicationRequest:encounter&_include=MedicationRequest:subject&_format=json&patient=eD9Lyzs-ab83UnHh.C9ZKDg3"
        }
    ],
    "entry": [
        {
            "link": [
                {
                    "relation": "self",
                    "url": "https://appmarket.epic.com/interconnect-amcurprd-oauth/api/FHIR/R4/MedicationRequest/e2aFbqtorPhJuaqRHqXAfQA3"
                }
            ],
            "fullUrl": "https://appmarket.epic.com/interconnect-amcurprd-oauth/api/FHIR/R4/MedicationRequest/e2aFbqtorPhJuaqRHqXAfQA3",
            "resource": {
                "resourceType": "MedicationRequest",
                "id": "e2aFbqtorPhJuaqRHqXAfQA3",
                "identifier": [
                    {
                        "use": "usual",
                        "system": "urn:oid:1.2.840.114350.1.13.0.1.7.2.798268",
                        "value": "879398"
                    }
                ],
                "status": "stopped",
                "intent": "order",
                "category": [
                    {
                        "coding": [
                            {
                                "system": "http://terminology.hl7.org/CodeSystem/medicationrequest-category",
                                "code": "community",
                                "display": "Community"
                            }
                        ],
                        "text": "Community"
                    }
                ],
                "medicationReference": {
                    "reference": "Medication/eM1UcjWxYEMYw1RZILYqOgwc-H0o2x8gtcrO-w5C7qL-HP5JdnYtXCA8Zs-6hjREi3",
                    "display": "levothyroxine (SYNTHROID, LEVOTHROID) tablet"
                },
                "subject": {
                    "reference": "Patient/eD9Lyzs-ab83UnHh.C9ZKDg3",
                    "display": "Orders, Ben"
                },
                "encounter": {
                    "reference": "Encounter/elgek-MHQqKU8btiuqT6hJQ3",
                    "identifier": {
                        "use": "usual",
                        "system": "urn:oid:1.2.840.114350.1.13.0.1.7.3.698084.8",
                        "value": "8142"
                    },
                    "display": "Office Visit"
                },
                "authoredOn": "2012-09-29T21:20:57Z",
                "requester": {
                    "reference": "Practitioner/eM5CWtq15N0WJeuCet5bJlQ3",
                    "type": "Practitioner",
                    "display": "Physician Family Medicine, MD"
                },
                "recorder": {
                    "reference": "Practitioner/eM5CWtq15N0WJeuCet5bJlQ3",
                    "type": "Practitioner",
                    "display": "Physician Family Medicine, MD"
                },
                "courseOfTherapyType": {
                    "coding": [
                        {
                            "system": "http://terminology.hl7.org/CodeSystem/medicationrequest-course-of-therapy",
                            "code": "acute",
                            "display": "Short course (acute) therapy"
                        }
                    ],
                    "text": "Short course (acute) therapy"
                },
                "dosageInstruction": [
                    {
                        "text": "take 1 Tab by mouth Daily. , Starting 9/29/2012, Until Fri 1/11/13, Normal",
                        "patientInstruction": "take 1 Tab by mouth Daily. ",
                        "timing": {
                            "repeat": {
                                "boundsPeriod": {
                                    "start": "2012-09-29",
                                    "end": "2013-01-11"
                                },
                                "timeOfDay": [
                                    "09:00:00"
                                ]
                            },
                            "code": {
                                "text": "0900"
                            }
                        },
                        "asNeededBoolean": false,
                        "route": {
                            "coding": [
                                {
                                    "system": "http://snomed.info/sct",
                                    "code": "260548002",
                                    "display": "Oral (qualifier value)"
                                },
                                {
                                    "system": "urn:oid:1.2.840.114350.1.13.0.1.7.4.798268.7025",
                                    "code": "15",
                                    "display": "Oral"
                                }
                            ],
                            "text": "Oral"
                        },
                        "doseAndRate": [
                            {
                                "type": {
                                    "coding": [
                                        {
                                            "system": "http://epic.com/CodeSystem/dose-rate-type",
                                            "code": "calculated",
                                            "display": "calculated"
                                        }
                                    ],
                                    "text": "calculated"
                                },
                                "doseQuantity": {
                                    "value": 75,
                                    "unit": "mcg",
                                    "system": "http://unitsofmeasure.org",
                                    "code": "ug"
                                }
                            },
                            {
                                "type": {
                                    "coding": [
                                        {
                                            "system": "http://epic.com/CodeSystem/dose-rate-type",
                                            "code": "admin-amount",
                                            "display": "admin-amount"
                                        }
                                    ],
                                    "text": "admin-amount"
                                },
                                "doseQuantity": {
                                    "value": 1,
                                    "unit": "tablet",
                                    "system": "http://unitsofmeasure.org",
                                    "code": "{tbl}"
                                }
                            },
                            {
                                "type": {
                                    "coding": [
                                        {
                                            "system": "http://epic.com/CodeSystem/dose-rate-type",
                                            "code": "ordered",
                                            "display": "ordered"
                                        }
                                    ],
                                    "text": "ordered"
                                },
                                "doseQuantity": {
                                    "value": 75,
                                    "unit": "mcg",
                                    "system": "http://unitsofmeasure.org",
                                    "code": "ug"
                                }
                            }
                        ]
                    }
                ],
                "dispenseRequest": {
                    "validityPeriod": {
                        "start": "2012-09-29",
                        "end": "2013-01-11"
                    },
                    "numberOfRepeatsAllowed": 0
                }
            },
            "search": {
                "mode": "match"
            }
        },
        {
            "link": [
                {
                    "relation": "self",
                    "url": "https://appmarket.epic.com/interconnect-amcurprd-oauth/api/FHIR/R4/MedicationRequest/e3bsU8Cfb5K-QOrXRZPPvJg3"
                }
            ],
            "fullUrl": "https://appmarket.epic.com/interconnect-amcurprd-oauth/api/FHIR/R4/MedicationRequest/e3bsU8Cfb5K-QOrXRZPPvJg3",
            "resource": {
                "resourceType": "MedicationRequest",
                "id": "e3bsU8Cfb5K-QOrXRZPPvJg3",
                "identifier": [
                    {
                        "use": "usual",
                        "system": "urn:oid:1.2.840.114350.1.13.0.1.7.2.798268",
                        "value": "879384"
                    }
                ],
                "status": "stopped",
                "intent": "order",
                "category": [
                    {
                        "coding": [
                            {
                                "system": "http://terminology.hl7.org/CodeSystem/medicationrequest-category",
                                "code": "community",
                                "display": "Community"
                            }
                        ],
                        "text": "Community"
                    }
                ],
                "medicationReference": {
                    "reference": "Medication/eA9IZM.lvQVOXTDPYrt97mhqCvw4YAV1pr8KRoi-hmmgfQZ82QCzcXCpCU6B7-lL93",
                    "display": "levothyroxine (SYNTHROID, LEVOTHROID) tablet"
                },
                "subject": {
                    "reference": "Patient/eD9Lyzs-ab83UnHh.C9ZKDg3",
                    "display": "Orders, Ben"
                },
                "encounter": {
                    "reference": "Encounter/eIeiWM9J.ex7-.U2cpY-SbQ3",
                    "identifier": {
                        "use": "usual",
                        "system": "urn:oid:1.2.840.114350.1.13.0.1.7.3.698084.8",
                        "value": "8138"
                    },
                    "display": "Telephone"
                },
                "authoredOn": "2013-01-11T23:57:44Z",
                "requester": {
                    "reference": "Practitioner/eM5CWtq15N0WJeuCet5bJlQ3",
                    "type": "Practitioner",
                    "display": "Physician Family Medicine, MD"
                },
                "recorder": {
                    "reference": "Practitioner/eM5CWtq15N0WJeuCet5bJlQ3",
                    "type": "Practitioner",
                    "display": "Physician Family Medicine, MD"
                },
                "courseOfTherapyType": {
                    "coding": [
                        {
                            "system": "http://terminology.hl7.org/CodeSystem/medicationrequest-course-of-therapy",
                            "code": "acute",
                            "display": "Short course (acute) therapy"
                        }
                    ],
                    "text": "Short course (acute) therapy"
                },
                "dosageInstruction": [
                    {
                        "text": "take 1 Tab by mouth Daily. , Starting 1/11/2013, Until Sat 4/20/13, Phone In",
                        "patientInstruction": "take 1 Tab by mouth Daily. ",
                        "timing": {
                            "repeat": {
                                "boundsPeriod": {
                                    "start": "2013-01-11",
                                    "end": "2013-04-20"
                                },
                                "timeOfDay": [
                                    "09:00:00"
                                ]
                            },
                            "code": {
                                "text": "0900"
                            }
                        },
                        "asNeededBoolean": false,
                        "route": {
                            "coding": [
                                {
                                    "system": "http://snomed.info/sct",
                                    "code": "260548002",
                                    "display": "Oral (qualifier value)"
                                },
                                {
                                    "system": "urn:oid:1.2.840.114350.1.13.0.1.7.4.798268.7025",
                                    "code": "15",
                                    "display": "Oral"
                                }
                            ],
                            "text": "Oral"
                        },
                        "doseAndRate": [
                            {
                                "type": {
                                    "coding": [
                                        {
                                            "system": "http://epic.com/CodeSystem/dose-rate-type",
                                            "code": "calculated",
                                            "display": "calculated"
                                        }
                                    ],
                                    "text": "calculated"
                                },
                                "doseQuantity": {
                                    "value": 100,
                                    "unit": "mcg",
                                    "system": "http://unitsofmeasure.org",
                                    "code": "ug"
                                }
                            },
                            {
                                "type": {
                                    "coding": [
                                        {
                                            "system": "http://epic.com/CodeSystem/dose-rate-type",
                                            "code": "admin-amount",
                                            "display": "admin-amount"
                                        }
                                    ],
                                    "text": "admin-amount"
                                },
                                "doseQuantity": {
                                    "value": 1,
                                    "unit": "tablet",
                                    "system": "http://unitsofmeasure.org",
                                    "code": "{tbl}"
                                }
                            },
                            {
                                "type": {
                                    "coding": [
                                        {
                                            "system": "http://epic.com/CodeSystem/dose-rate-type",
                                            "code": "ordered",
                                            "display": "ordered"
                                        }
                                    ],
                                    "text": "ordered"
                                },
                                "doseQuantity": {
                                    "value": 100,
                                    "unit": "mcg",
                                    "system": "http://unitsofmeasure.org",
                                    "code": "ug"
                                }
                            }
                        ]
                    }
                ],
                "dispenseRequest": {
                    "validityPeriod": {
                        "start": "2013-01-11",
                        "end": "2013-04-20"
                    },
                    "numberOfRepeatsAllowed": 0
                }
            },
            "search": {
                "mode": "match"
            }
        },
        {
            "link": [
                {
                    "relation": "self",
                    "url": "https://appmarket.epic.com/interconnect-amcurprd-oauth/api/FHIR/R4/MedicationRequest/e7Lbr79QIYQvhUpRnTlZr-g3"
                }
            ],
            "fullUrl": "https://appmarket.epic.com/interconnect-amcurprd-oauth/api/FHIR/R4/MedicationRequest/e7Lbr79QIYQvhUpRnTlZr-g3",
            "resource": {
                "resourceType": "MedicationRequest",
                "id": "e7Lbr79QIYQvhUpRnTlZr-g3",
                "identifier": [
                    {
                        "use": "usual",
                        "system": "urn:oid:1.2.840.114350.1.13.0.1.7.2.798268",
                        "value": "879393"
                    }
                ],
                "status": "stopped",
                "intent": "order",
                "category": [
                    {
                        "coding": [
                            {
                                "system": "http://terminology.hl7.org/CodeSystem/medicationrequest-category",
                                "code": "community",
                                "display": "Community"
                            }
                        ],
                        "text": "Community"
                    }
                ],
                "medicationReference": {
                    "reference": "Medication/egt-gAMoTQGY0LWJ8P2qnc3bQfkK3-GTCm1UtXWdLMM-wR2Z1OQiujH30r1RFNONY3",
                    "display": "dilTIAZem (CARDIZEM) tablet"
                },
                "subject": {
                    "reference": "Patient/eD9Lyzs-ab83UnHh.C9ZKDg3",
                    "display": "Orders, Ben"
                },
                "encounter": {
                    "reference": "Encounter/eNU42gf48Me.65ekQCL1LVw3",
                    "identifier": {
                        "use": "usual",
                        "system": "urn:oid:1.2.840.114350.1.13.0.1.7.3.698084.8",
                        "value": "8140"
                    },
                    "display": "Office Visit"
                },
                "authoredOn": "2012-11-05T22:59:51Z",
                "requester": {
                    "reference": "Practitioner/eM5CWtq15N0WJeuCet5bJlQ3",
                    "type": "Practitioner",
                    "display": "Physician Family Medicine, MD"
                },
                "recorder": {
                    "reference": "Practitioner/eM5CWtq15N0WJeuCet5bJlQ3",
                    "type": "Practitioner",
                    "display": "Physician Family Medicine, MD"
                },
                "courseOfTherapyType": {
                    "coding": [
                        {
                            "system": "http://terminology.hl7.org/CodeSystem/medicationrequest-course-of-therapy",
                            "code": "acute",
                            "display": "Short course (acute) therapy"
                        }
                    ],
                    "text": "Short course (acute) therapy"
                },
                "dosageInstruction": [
                    {
                        "text": "take 1 Tab by mouth 2 times daily. , Starting 11/5/2012, Until Wed 1/9/13, Normal",
                        "patientInstruction": "take 1 Tab by mouth 2 times daily. ",
                        "timing": {
                            "repeat": {
                                "boundsPeriod": {
                                    "start": "2012-11-05",
                                    "end": "2013-01-09"
                                },
                                "timeOfDay": [
                                    "09:00:00",
                                    "18:00:00"
                                ]
                            },
                            "code": {
                                "text": "0900, 1800"
                            }
                        },
                        "asNeededBoolean": false,
                        "route": {
                            "coding": [
                                {
                                    "system": "http://snomed.info/sct",
                                    "code": "260548002",
                                    "display": "Oral (qualifier value)"
                                },
                                {
                                    "system": "urn:oid:1.2.840.114350.1.13.0.1.7.4.798268.7025",
                                    "code": "15",
                                    "display": "Oral"
                                }
                            ],
                            "text": "Oral"
                        },
                        "doseAndRate": [
                            {
                                "type": {
                                    "coding": [
                                        {
                                            "system": "http://epic.com/CodeSystem/dose-rate-type",
                                            "code": "ordered",
                                            "display": "ordered"
                                        }
                                    ],
                                    "text": "ordered"
                                },
                                "doseQuantity": {
                                    "value": 1,
                                    "unit": "tablet",
                                    "system": "http://unitsofmeasure.org",
                                    "code": "{tbl}"
                                }
                            }
                        ]
                    }
                ],
                "dispenseRequest": {
                    "validityPeriod": {
                        "start": "2012-11-05",
                        "end": "2013-01-09"
                    },
                    "numberOfRepeatsAllowed": 0
                }
            },
            "search": {
                "mode": "match"
            }
        },
        {
            "link": [
                {
                    "relation": "self",
                    "url": "https://appmarket.epic.com/interconnect-amcurprd-oauth/api/FHIR/R4/MedicationRequest/eCAMjSIAIfKKD.853BY0q3w3"
                }
            ],
            "fullUrl": "https://appmarket.epic.com/interconnect-amcurprd-oauth/api/FHIR/R4/MedicationRequest/eCAMjSIAIfKKD.853BY0q3w3",
            "resource": {
                "resourceType": "MedicationRequest",
                "id": "eCAMjSIAIfKKD.853BY0q3w3",
                "identifier": [
                    {
                        "use": "usual",
                        "system": "urn:oid:1.2.840.114350.1.13.0.1.7.2.798268",
                        "value": "879378"
                    }
                ],
                "status": "completed",
                "intent": "order",
                "category": [
                    {
                        "coding": [
                            {
                                "system": "http://terminology.hl7.org/CodeSystem/medicationrequest-category",
                                "code": "community",
                                "display": "Community"
                            }
                        ],
                        "text": "Community"
                    }
                ],
                "medicationReference": {
                    "reference": "Medication/eAMyTcggmIulnQ2tTBjDzeLE461KHs.oZNwAFagf8v1CPIBAO-iBLCBlfwvHfyM6J3",
                    "display": "dilTIAZem (CARDIZEM CD) 24 hr capsule"
                },
                "subject": {
                    "reference": "Patient/eD9Lyzs-ab83UnHh.C9ZKDg3",
                    "display": "Orders, Ben"
                },
                "encounter": {
                    "reference": "Encounter/e8fm2ntqkHmIvFq4Q3YcYNA3",
                    "identifier": {
                        "use": "usual",
                        "system": "urn:oid:1.2.840.114350.1.13.0.1.7.3.698084.8",
                        "value": "8134"
                    },
                    "display": "Refill"
                },
                "authoredOn": "2013-04-20T15:26:04Z",
                "requester": {
                    "reference": "Practitioner/eM5CWtq15N0WJeuCet5bJlQ3",
                    "type": "Practitioner",
                    "display": "Physician Family Medicine, MD"
                },
                "recorder": {
                    "reference": "Practitioner/eM5CWtq15N0WJeuCet5bJlQ3",
                    "type": "Practitioner",
                    "display": "Physician Family Medicine, MD"
                },
                "courseOfTherapyType": {
                    "coding": [
                        {
                            "system": "http://terminology.hl7.org/CodeSystem/medicationrequest-course-of-therapy",
                            "code": "acute",
                            "display": "Short course (acute) therapy"
                        }
                    ],
                    "text": "Short course (acute) therapy"
                },
                "dosageInstruction": [
                    {
                        "text": "take 1 Tab by mouth Daily. , Starting 4/20/2013, Until Sun 4/20/14, Phone In",
                        "patientInstruction": "take 1 Tab by mouth Daily. ",
                        "timing": {
                            "repeat": {
                                "boundsPeriod": {
                                    "start": "2013-04-20"
                                },
                                "timeOfDay": [
                                    "09:00:00"
                                ]
                            },
                            "code": {
                                "text": "0900"
                            }
                        },
                        "asNeededBoolean": false,
                        "route": {
                            "coding": [
                                {
                                    "system": "http://snomed.info/sct",
                                    "code": "260548002",
                                    "display": "Oral (qualifier value)"
                                },
                                {
                                    "system": "urn:oid:1.2.840.114350.1.13.0.1.7.4.798268.7025",
                                    "code": "15",
                                    "display": "Oral"
                                }
                            ],
                            "text": "Oral"
                        },
                        "doseAndRate": [
                            {
                                "type": {
                                    "coding": [
                                        {
                                            "system": "http://epic.com/CodeSystem/dose-rate-type",
                                            "code": "ordered",
                                            "display": "ordered"
                                        }
                                    ],
                                    "text": "ordered"
                                },
                                "doseQuantity": {
                                    "value": 1,
                                    "unit": "tablet",
                                    "system": "http://unitsofmeasure.org",
                                    "code": "{tbl}"
                                }
                            }
                        ]
                    }
                ],
                "dispenseRequest": {
                    "validityPeriod": {
                        "start": "2013-04-20"
                    },
                    "numberOfRepeatsAllowed": 1
                },
                "priorPrescription": {
                    "reference": "MedicationRequest/ePpwNeRaBIiei4PA1UP-xzg3",
                    "display": "DILTIAZEM HCL COATED BEADS (CARDIZEM CD) 240 MG PO CP24"
                }
            },
            "search": {
                "mode": "match"
            }
        },
        {
            "link": [
                {
                    "relation": "self",
                    "url": "https://appmarket.epic.com/interconnect-amcurprd-oauth/api/FHIR/R4/MedicationRequest/eEfZRf2Ob3lQDeGYrS6nSNQ3"
                }
            ],
            "fullUrl": "https://appmarket.epic.com/interconnect-amcurprd-oauth/api/FHIR/R4/MedicationRequest/eEfZRf2Ob3lQDeGYrS6nSNQ3",
            "resource": {
                "resourceType": "MedicationRequest",
                "id": "eEfZRf2Ob3lQDeGYrS6nSNQ3",
                "identifier": [
                    {
                        "use": "usual",
                        "system": "urn:oid:1.2.840.114350.1.13.0.1.7.2.798268",
                        "value": "879389"
                    }
                ],
                "status": "completed",
                "intent": "order",
                "category": [
                    {
                        "coding": [
                            {
                                "system": "http://terminology.hl7.org/CodeSystem/medicationrequest-category",
                                "code": "community",
                                "display": "Community"
                            }
                        ],
                        "text": "Community"
                    }
                ],
                "medicationReference": {
                    "reference": "Medication/e4a358bdlVtjl8Jqsf3-8u7IQV2ZYnJe6RmM46ClwkMSGV43-IVGPilDLyrh-QNqy3",
                    "display": "famotidine (PEPCID) tablet"
                },
                "subject": {
                    "reference": "Patient/eD9Lyzs-ab83UnHh.C9ZKDg3",
                    "display": "Orders, Ben"
                },
                "encounter": {
                    "reference": "Encounter/eSI1M.mxEGEfgn2v5ATr9OQ3",
                    "identifier": {
                        "use": "usual",
                        "system": "urn:oid:1.2.840.114350.1.13.0.1.7.3.698084.8",
                        "value": "8139"
                    },
                    "display": "Office Visit"
                },
                "authoredOn": "2013-01-09T23:37:53Z",
                "requester": {
                    "reference": "Practitioner/eM5CWtq15N0WJeuCet5bJlQ3",
                    "type": "Practitioner",
                    "display": "Physician Family Medicine, MD"
                },
                "recorder": {
                    "reference": "Practitioner/eM5CWtq15N0WJeuCet5bJlQ3",
                    "type": "Practitioner",
                    "display": "Physician Family Medicine, MD"
                },
                "courseOfTherapyType": {
                    "coding": [
                        {
                            "system": "http://terminology.hl7.org/CodeSystem/medicationrequest-course-of-therapy",
                            "code": "acute",
                            "display": "Short course (acute) therapy"
                        }
                    ],
                    "text": "Short course (acute) therapy"
                },
                "dosageInstruction": [
                    {
                        "text": "take 1 Tab by mouth 2 times daily. , Starting 1/9/2013, Until Thu 1/9/14, Normal",
                        "patientInstruction": "take 1 Tab by mouth 2 times daily. ",
                        "timing": {
                            "repeat": {
                                "boundsPeriod": {
                                    "start": "2013-01-09"
                                },
                                "timeOfDay": [
                                    "09:00:00",
                                    "18:00:00"
                                ]
                            },
                            "code": {
                                "text": "0900, 1800"
                            }
                        },
                        "asNeededBoolean": false,
                        "route": {
                            "coding": [
                                {
                                    "system": "http://snomed.info/sct",
                                    "code": "260548002",
                                    "display": "Oral (qualifier value)"
                                },
                                {
                                    "system": "urn:oid:1.2.840.114350.1.13.0.1.7.4.798268.7025",
                                    "code": "15",
                                    "display": "Oral"
                                }
                            ],
                            "text": "Oral"
                        },
                        "doseAndRate": [
                            {
                                "type": {
                                    "coding": [
                                        {
                                            "system": "http://epic.com/CodeSystem/dose-rate-type",
                                            "code": "calculated",
                                            "display": "calculated"
                                        }
                                    ],
                                    "text": "calculated"
                                },
                                "doseQuantity": {
                                    "value": 20,
                                    "unit": "mg",
                                    "system": "http://unitsofmeasure.org",
                                    "code": "mg"
                                }
                            },
                            {
                                "type": {
                                    "coding": [
                                        {
                                            "system": "http://epic.com/CodeSystem/dose-rate-type",
                                            "code": "admin-amount",
                                            "display": "admin-amount"
                                        }
                                    ],
                                    "text": "admin-amount"
                                },
                                "doseQuantity": {
                                    "value": 1,
                                    "unit": "tablet",
                                    "system": "http://unitsofmeasure.org",
                                    "code": "{tbl}"
                                }
                            },
                            {
                                "type": {
                                    "coding": [
                                        {
                                            "system": "http://epic.com/CodeSystem/dose-rate-type",
                                            "code": "ordered",
                                            "display": "ordered"
                                        }
                                    ],
                                    "text": "ordered"
                                },
                                "doseQuantity": {
                                    "value": 20,
                                    "unit": "mg",
                                    "system": "http://unitsofmeasure.org",
                                    "code": "mg"
                                }
                            }
                        ]
                    }
                ],
                "dispenseRequest": {
                    "validityPeriod": {
                        "start": "2013-01-09"
                    },
                    "numberOfRepeatsAllowed": 0
                }
            },
            "search": {
                "mode": "match"
            }
        },
        {
            "link": [
                {
                    "relation": "self",
                    "url": "https://appmarket.epic.com/interconnect-amcurprd-oauth/api/FHIR/R4/MedicationRequest/eEuEaiLBGN2NTqwdeEWZbtQ3"
                }
            ],
            "fullUrl": "https://appmarket.epic.com/interconnect-amcurprd-oauth/api/FHIR/R4/MedicationRequest/eEuEaiLBGN2NTqwdeEWZbtQ3",
            "resource": {
                "resourceType": "MedicationRequest",
                "id": "eEuEaiLBGN2NTqwdeEWZbtQ3",
                "identifier": [
                    {
                        "use": "usual",
                        "system": "urn:oid:1.2.840.114350.1.13.0.1.7.2.798268",
                        "value": "879399"
                    }
                ],
                "status": "stopped",
                "intent": "order",
                "category": [
                    {
                        "coding": [
                            {
                                "system": "http://terminology.hl7.org/CodeSystem/medicationrequest-category",
                                "code": "community",
                                "display": "Community"
                            }
                        ],
                        "text": "Community"
                    }
                ],
                "medicationReference": {
                    "reference": "Medication/e.LXHYUhKafD4VXBvv9kq-w9z13IxwXvT89jbOZDx5wvEvFCKJvn8MLCvIpjyaF4D3",
                    "display": "dilTIAZem (CARDIZEM CD) 24 hr capsule"
                },
                "subject": {
                    "reference": "Patient/eD9Lyzs-ab83UnHh.C9ZKDg3",
                    "display": "Orders, Ben"
                },
                "encounter": {
                    "reference": "Encounter/elgek-MHQqKU8btiuqT6hJQ3",
                    "identifier": {
                        "use": "usual",
                        "system": "urn:oid:1.2.840.114350.1.13.0.1.7.3.698084.8",
                        "value": "8142"
                    },
                    "display": "Office Visit"
                },
                "authoredOn": "2012-09-29T21:20:57Z",
                "requester": {
                    "reference": "Practitioner/eM5CWtq15N0WJeuCet5bJlQ3",
                    "type": "Practitioner",
                    "display": "Physician Family Medicine, MD"
                },
                "recorder": {
                    "reference": "Practitioner/eM5CWtq15N0WJeuCet5bJlQ3",
                    "type": "Practitioner",
                    "display": "Physician Family Medicine, MD"
                },
                "courseOfTherapyType": {
                    "coding": [
                        {
                            "system": "http://terminology.hl7.org/CodeSystem/medicationrequest-course-of-therapy",
                            "code": "acute",
                            "display": "Short course (acute) therapy"
                        }
                    ],
                    "text": "Short course (acute) therapy"
                },
                "dosageInstruction": [
                    {
                        "text": "take 1 Tab by mouth Daily. , Starting 9/29/2012, Until Mon 11/5/12, Normal",
                        "patientInstruction": "take 1 Tab by mouth Daily. ",
                        "timing": {
                            "repeat": {
                                "boundsPeriod": {
                                    "start": "2012-09-29",
                                    "end": "2012-11-05"
                                },
                                "timeOfDay": [
                                    "09:00:00"
                                ]
                            },
                            "code": {
                                "text": "0900"
                            }
                        },
                        "asNeededBoolean": false,
                        "route": {
                            "coding": [
                                {
                                    "system": "http://snomed.info/sct",
                                    "code": "260548002",
                                    "display": "Oral (qualifier value)"
                                },
                                {
                                    "system": "urn:oid:1.2.840.114350.1.13.0.1.7.4.798268.7025",
                                    "code": "15",
                                    "display": "Oral"
                                }
                            ],
                            "text": "Oral"
                        },
                        "doseAndRate": [
                            {
                                "type": {
                                    "coding": [
                                        {
                                            "system": "http://epic.com/CodeSystem/dose-rate-type",
                                            "code": "ordered",
                                            "display": "ordered"
                                        }
                                    ],
                                    "text": "ordered"
                                },
                                "doseQuantity": {
                                    "value": 1,
                                    "unit": "tablet",
                                    "system": "http://unitsofmeasure.org",
                                    "code": "{tbl}"
                                }
                            }
                        ]
                    }
                ],
                "dispenseRequest": {
                    "validityPeriod": {
                        "start": "2012-09-29",
                        "end": "2012-11-05"
                    },
                    "numberOfRepeatsAllowed": 0
                }
            },
            "search": {
                "mode": "match"
            }
        },
        {
            "link": [
                {
                    "relation": "self",
                    "url": "https://appmarket.epic.com/interconnect-amcurprd-oauth/api/FHIR/R4/MedicationRequest/eFgkhycQcBVQVRRJE3ejP1Q3"
                }
            ],
            "fullUrl": "https://appmarket.epic.com/interconnect-amcurprd-oauth/api/FHIR/R4/MedicationRequest/eFgkhycQcBVQVRRJE3ejP1Q3",
            "resource": {
                "resourceType": "MedicationRequest",
                "id": "eFgkhycQcBVQVRRJE3ejP1Q3",
                "identifier": [
                    {
                        "use": "usual",
                        "system": "urn:oid:1.2.840.114350.1.13.0.1.7.2.798268",
                        "value": "879395"
                    }
                ],
                "status": "completed",
                "intent": "order",
                "category": [
                    {
                        "coding": [
                            {
                                "system": "http://terminology.hl7.org/CodeSystem/medicationrequest-category",
                                "code": "community",
                                "display": "Community"
                            }
                        ],
                        "text": "Community"
                    }
                ],
                "medicationReference": {
                    "reference": "Medication/eBQbIRqmHguWneK5v8Og9E7Zmgcx4ozb3u0fz2DYn.WfhDlaNG1a4wV31v4FS7jUR3",
                    "display": "nicotine (NICODERM CQ) patch 14 mg/24 hr"
                },
                "subject": {
                    "reference": "Patient/eD9Lyzs-ab83UnHh.C9ZKDg3",
                    "display": "Orders, Ben"
                },
                "encounter": {
                    "reference": "Encounter/eNU42gf48Me.65ekQCL1LVw3",
                    "identifier": {
                        "use": "usual",
                        "system": "urn:oid:1.2.840.114350.1.13.0.1.7.3.698084.8",
                        "value": "8140"
                    },
                    "display": "Office Visit"
                },
                "authoredOn": "2012-11-05T22:59:51Z",
                "requester": {
                    "reference": "Practitioner/eM5CWtq15N0WJeuCet5bJlQ3",
                    "type": "Practitioner",
                    "display": "Physician Family Medicine, MD"
                },
                "recorder": {
                    "reference": "Practitioner/eM5CWtq15N0WJeuCet5bJlQ3",
                    "type": "Practitioner",
                    "display": "Physician Family Medicine, MD"
                },
                "courseOfTherapyType": {
                    "coding": [
                        {
                            "system": "http://terminology.hl7.org/CodeSystem/medicationrequest-course-of-therapy",
                            "code": "acute",
                            "display": "Short course (acute) therapy"
                        }
                    ],
                    "text": "Short course (acute) therapy"
                },
                "dosageInstruction": [
                    {
                        "text": "1 Patch by Transdermal route Every 24 hours. , Starting 11/5/2012, Until Tue 11/5/13, Normal",
                        "patientInstruction": "1 Patch by Transdermal route Every 24 hours. ",
                        "timing": {
                            "repeat": {
                                "boundsPeriod": {
                                    "start": "2012-11-05"
                                },
                                "frequency": 1,
                                "period": 24,
                                "periodUnit": "h"
                            },
                            "code": {
                                "text": "Every 24 hours"
                            }
                        },
                        "asNeededBoolean": false,
                        "route": {
                            "coding": [
                                {
                                    "system": "urn:oid:1.2.840.114350.1.13.0.1.7.4.798268.7025",
                                    "code": "20",
                                    "display": "Transdermal"
                                }
                            ],
                            "text": "Transdermal"
                        },
                        "doseAndRate": [
                            {
                                "type": {
                                    "coding": [
                                        {
                                            "system": "http://epic.com/CodeSystem/dose-rate-type",
                                            "code": "calculated",
                                            "display": "calculated"
                                        }
                                    ],
                                    "text": "calculated"
                                },
                                "doseQuantity": {
                                    "value": 1,
                                    "unit": "patch",
                                    "system": "http://unitsofmeasure.org",
                                    "code": "{patch}"
                                }
                            },
                            {
                                "type": {
                                    "coding": [
                                        {
                                            "system": "http://epic.com/CodeSystem/dose-rate-type",
                                            "code": "admin-amount",
                                            "display": "admin-amount"
                                        }
                                    ],
                                    "text": "admin-amount"
                                },
                                "doseQuantity": {
                                    "value": 1,
                                    "unit": "patch",
                                    "system": "http://unitsofmeasure.org",
                                    "code": "{patch}"
                                }
                            },
                            {
                                "type": {
                                    "coding": [
                                        {
                                            "system": "http://epic.com/CodeSystem/dose-rate-type",
                                            "code": "ordered",
                                            "display": "ordered"
                                        }
                                    ],
                                    "text": "ordered"
                                },
                                "doseQuantity": {
                                    "value": 1,
                                    "unit": "patch",
                                    "system": "http://unitsofmeasure.org",
                                    "code": "{patch}"
                                }
                            }
                        ]
                    }
                ],
                "dispenseRequest": {
                    "validityPeriod": {
                        "start": "2012-11-05"
                    },
                    "numberOfRepeatsAllowed": 2
                }
            },
            "search": {
                "mode": "match"
            }
        },
        {
            "link": [
                {
                    "relation": "self",
                    "url": "https://appmarket.epic.com/interconnect-amcurprd-oauth/api/FHIR/R4/MedicationRequest/eJU-Oxz8l6HZrZlt2lc.lMg3"
                }
            ],
            "fullUrl": "https://appmarket.epic.com/interconnect-amcurprd-oauth/api/FHIR/R4/MedicationRequest/eJU-Oxz8l6HZrZlt2lc.lMg3",
            "resource": {
                "resourceType": "MedicationRequest",
                "id": "eJU-Oxz8l6HZrZlt2lc.lMg3",
                "identifier": [
                    {
                        "use": "usual",
                        "system": "urn:oid:1.2.840.114350.1.13.0.1.7.2.798268",
                        "value": "879379"
                    }
                ],
                "status": "completed",
                "intent": "order",
                "category": [
                    {
                        "coding": [
                            {
                                "system": "http://terminology.hl7.org/CodeSystem/medicationrequest-category",
                                "code": "community",
                                "display": "Community"
                            }
                        ],
                        "text": "Community"
                    }
                ],
                "medicationReference": {
                    "reference": "Medication/eA9IZM.lvQVOXTDPYrt97mnq4AttvuvI2S31QHivLbfqctUnjDvaXR5upLr5pBtsR3",
                    "display": "levothyroxine (SYNTHROID, LEVOTHROID) tablet"
                },
                "subject": {
                    "reference": "Patient/eD9Lyzs-ab83UnHh.C9ZKDg3",
                    "display": "Orders, Ben"
                },
                "encounter": {
                    "reference": "Encounter/e8fm2ntqkHmIvFq4Q3YcYNA3",
                    "identifier": {
                        "use": "usual",
                        "system": "urn:oid:1.2.840.114350.1.13.0.1.7.3.698084.8",
                        "value": "8134"
                    },
                    "display": "Refill"
                },
                "authoredOn": "2013-04-20T15:26:04Z",
                "requester": {
                    "reference": "Practitioner/eM5CWtq15N0WJeuCet5bJlQ3",
                    "type": "Practitioner",
                    "display": "Physician Family Medicine, MD"
                },
                "recorder": {
                    "reference": "Practitioner/eM5CWtq15N0WJeuCet5bJlQ3",
                    "type": "Practitioner",
                    "display": "Physician Family Medicine, MD"
                },
                "courseOfTherapyType": {
                    "coding": [
                        {
                            "system": "http://terminology.hl7.org/CodeSystem/medicationrequest-course-of-therapy",
                            "code": "acute",
                            "display": "Short course (acute) therapy"
                        }
                    ],
                    "text": "Short course (acute) therapy"
                },
                "dosageInstruction": [
                    {
                        "text": "take 1 Tab by mouth Daily. , Starting 4/20/2013, Until Sun 4/20/14, Phone In",
                        "patientInstruction": "take 1 Tab by mouth Daily. ",
                        "timing": {
                            "repeat": {
                                "boundsPeriod": {
                                    "start": "2013-04-20"
                                },
                                "timeOfDay": [
                                    "09:00:00"
                                ]
                            },
                            "code": {
                                "text": "0900"
                            }
                        },
                        "asNeededBoolean": false,
                        "route": {
                            "coding": [
                                {
                                    "system": "http://snomed.info/sct",
                                    "code": "260548002",
                                    "display": "Oral (qualifier value)"
                                },
                                {
                                    "system": "urn:oid:1.2.840.114350.1.13.0.1.7.4.798268.7025",
                                    "code": "15",
                                    "display": "Oral"
                                }
                            ],
                            "text": "Oral"
                        },
                        "doseAndRate": [
                            {
                                "type": {
                                    "coding": [
                                        {
                                            "system": "http://epic.com/CodeSystem/dose-rate-type",
                                            "code": "calculated",
                                            "display": "calculated"
                                        }
                                    ],
                                    "text": "calculated"
                                },
                                "doseQuantity": {
                                    "value": 100,
                                    "unit": "mcg",
                                    "system": "http://unitsofmeasure.org",
                                    "code": "ug"
                                }
                            },
                            {
                                "type": {
                                    "coding": [
                                        {
                                            "system": "http://epic.com/CodeSystem/dose-rate-type",
                                            "code": "admin-amount",
                                            "display": "admin-amount"
                                        }
                                    ],
                                    "text": "admin-amount"
                                },
                                "doseQuantity": {
                                    "value": 1,
                                    "unit": "tablet",
                                    "system": "http://unitsofmeasure.org",
                                    "code": "{tbl}"
                                }
                            },
                            {
                                "type": {
                                    "coding": [
                                        {
                                            "system": "http://epic.com/CodeSystem/dose-rate-type",
                                            "code": "ordered",
                                            "display": "ordered"
                                        }
                                    ],
                                    "text": "ordered"
                                },
                                "doseQuantity": {
                                    "value": 100,
                                    "unit": "mcg",
                                    "system": "http://unitsofmeasure.org",
                                    "code": "ug"
                                }
                            }
                        ]
                    }
                ],
                "dispenseRequest": {
                    "validityPeriod": {
                        "start": "2013-04-20"
                    },
                    "numberOfRepeatsAllowed": 0
                },
                "priorPrescription": {
                    "reference": "MedicationRequest/e3bsU8Cfb5K-QOrXRZPPvJg3",
                    "display": "levothyroxine (SYNTHROID) 100 MCG PO TABS"
                }
            },
            "search": {
                "mode": "match"
            }
        },
        {
            "link": [
                {
                    "relation": "self",
                    "url": "https://appmarket.epic.com/interconnect-amcurprd-oauth/api/FHIR/R4/MedicationRequest/eMKfhDFnH6J-pA-37KilrlQ3"
                }
            ],
            "fullUrl": "https://appmarket.epic.com/interconnect-amcurprd-oauth/api/FHIR/R4/MedicationRequest/eMKfhDFnH6J-pA-37KilrlQ3",
            "resource": {
                "resourceType": "MedicationRequest",
                "id": "eMKfhDFnH6J-pA-37KilrlQ3",
                "identifier": [
                    {
                        "use": "usual",
                        "system": "urn:oid:1.2.840.114350.1.13.0.1.7.2.798268",
                        "value": "879382"
                    }
                ],
                "status": "completed",
                "intent": "order",
                "category": [
                    {
                        "coding": [
                            {
                                "system": "http://terminology.hl7.org/CodeSystem/medicationrequest-category",
                                "code": "community",
                                "display": "Community"
                            }
                        ],
                        "text": "Community"
                    }
                ],
                "medicationReference": {
                    "reference": "Medication/ebYiUvEmAflK.4LtZVebjlhqmmiqagj8ytEqcxUZC9Vhp0oX0f5n17-YY-qX4047j3",
                    "display": "ACETAMINOPHEN-CODEINE 300-30 MG PO TABS"
                },
                "subject": {
                    "reference": "Patient/eD9Lyzs-ab83UnHh.C9ZKDg3",
                    "display": "Orders, Ben"
                },
                "encounter": {
                    "reference": "Encounter/egOQqS3YpA8ufwuGaYWwYeQ3",
                    "identifier": {
                        "use": "usual",
                        "system": "urn:oid:1.2.840.114350.1.13.0.1.7.3.698084.8",
                        "value": "8136"
                    },
                    "display": "Office Visit"
                },
                "authoredOn": "2013-04-15T23:19:55Z",
                "requester": {
                    "reference": "Practitioner/eM5CWtq15N0WJeuCet5bJlQ3",
                    "type": "Practitioner",
                    "display": "Physician Family Medicine, MD"
                },
                "recorder": {
                    "reference": "Practitioner/eM5CWtq15N0WJeuCet5bJlQ3",
                    "type": "Practitioner",
                    "display": "Physician Family Medicine, MD"
                },
                "courseOfTherapyType": {
                    "coding": [
                        {
                            "system": "http://terminology.hl7.org/CodeSystem/medicationrequest-course-of-therapy",
                            "code": "acute",
                            "display": "Short course (acute) therapy"
                        }
                    ],
                    "text": "Short course (acute) therapy"
                },
                "dosageInstruction": [
                    {
                        "text": "take 1 Tab by mouth Every 4 hours as needed , Starting 4/15/2013, Until Tue 4/15/14, Normal",
                        "patientInstruction": "take 1 Tab by mouth Every 4 hours as needed ",
                        "timing": {
                            "repeat": {
                                "boundsPeriod": {
                                    "start": "2013-04-15"
                                },
                                "frequency": 1,
                                "period": 4,
                                "periodUnit": "h"
                            },
                            "code": {
                                "text": "Every 4 (four) hours as needed"
                            }
                        },
                        "asNeededBoolean": true,
                        "route": {
                            "coding": [
                                {
                                    "system": "http://snomed.info/sct",
                                    "code": "260548002",
                                    "display": "Oral (qualifier value)"
                                },
                                {
                                    "system": "urn:oid:1.2.840.114350.1.13.0.1.7.4.798268.7025",
                                    "code": "15",
                                    "display": "Oral"
                                }
                            ],
                            "text": "Oral"
                        },
                        "doseAndRate": [
                            {
                                "type": {
                                    "coding": [
                                        {
                                            "system": "http://epic.com/CodeSystem/dose-rate-type",
                                            "code": "calculated",
                                            "display": "calculated"
                                        }
                                    ],
                                    "text": "calculated"
                                },
                                "doseQuantity": {
                                    "value": 1,
                                    "unit": "tablet",
                                    "system": "http://unitsofmeasure.org",
                                    "code": "{tbl}"
                                }
                            },
                            {
                                "type": {
                                    "coding": [
                                        {
                                            "system": "http://epic.com/CodeSystem/dose-rate-type",
                                            "code": "admin-amount",
                                            "display": "admin-amount"
                                        }
                                    ],
                                    "text": "admin-amount"
                                },
                                "doseQuantity": {
                                    "value": 1,
                                    "unit": "tablet",
                                    "system": "http://unitsofmeasure.org",
                                    "code": "{tbl}"
                                }
                            },
                            {
                                "type": {
                                    "coding": [
                                        {
                                            "system": "http://epic.com/CodeSystem/dose-rate-type",
                                            "code": "ordered",
                                            "display": "ordered"
                                        }
                                    ],
                                    "text": "ordered"
                                },
                                "doseQuantity": {
                                    "value": 1,
                                    "unit": "tablet",
                                    "system": "http://unitsofmeasure.org",
                                    "code": "{tbl}"
                                }
                            }
                        ]
                    }
                ],
                "dispenseRequest": {
                    "validityPeriod": {
                        "start": "2013-04-15"
                    },
                    "numberOfRepeatsAllowed": 0
                }
            },
            "search": {
                "mode": "match"
            }
        },
        {
            "link": [
                {
                    "relation": "self",
                    "url": "https://appmarket.epic.com/interconnect-amcurprd-oauth/api/FHIR/R4/MedicationRequest/ePpwNeRaBIiei4PA1UP-xzg3"
                }
            ],
            "fullUrl": "https://appmarket.epic.com/interconnect-amcurprd-oauth/api/FHIR/R4/MedicationRequest/ePpwNeRaBIiei4PA1UP-xzg3",
            "resource": {
                "resourceType": "MedicationRequest",
                "id": "ePpwNeRaBIiei4PA1UP-xzg3",
                "identifier": [
                    {
                        "use": "usual",
                        "system": "urn:oid:1.2.840.114350.1.13.0.1.7.2.798268",
                        "value": "879390"
                    }
                ],
                "status": "stopped",
                "intent": "order",
                "category": [
                    {
                        "coding": [
                            {
                                "system": "http://terminology.hl7.org/CodeSystem/medicationrequest-category",
                                "code": "community",
                                "display": "Community"
                            }
                        ],
                        "text": "Community"
                    }
                ],
                "medicationReference": {
                    "reference": "Medication/eAMyTcggmIulnQ2tTBjDzeCNrkYsv1nf05bKyrH0Nza42BqGu-4ogeOxkxseRd9Dc3",
                    "display": "dilTIAZem (CARDIZEM CD) 24 hr capsule"
                },
                "subject": {
                    "reference": "Patient/eD9Lyzs-ab83UnHh.C9ZKDg3",
                    "display": "Orders, Ben"
                },
                "encounter": {
                    "reference": "Encounter/eSI1M.mxEGEfgn2v5ATr9OQ3",
                    "identifier": {
                        "use": "usual",
                        "system": "urn:oid:1.2.840.114350.1.13.0.1.7.3.698084.8",
                        "value": "8139"
                    },
                    "display": "Office Visit"
                },
                "authoredOn": "2013-01-09T23:37:53Z",
                "requester": {
                    "reference": "Practitioner/eM5CWtq15N0WJeuCet5bJlQ3",
                    "type": "Practitioner",
                    "display": "Physician Family Medicine, MD"
                },
                "recorder": {
                    "reference": "Practitioner/eM5CWtq15N0WJeuCet5bJlQ3",
                    "type": "Practitioner",
                    "display": "Physician Family Medicine, MD"
                },
                "courseOfTherapyType": {
                    "coding": [
                        {
                            "system": "http://terminology.hl7.org/CodeSystem/medicationrequest-course-of-therapy",
                            "code": "acute",
                            "display": "Short course (acute) therapy"
                        }
                    ],
                    "text": "Short course (acute) therapy"
                },
                "dosageInstruction": [
                    {
                        "text": "take 1 Tab by mouth Daily. , Starting 1/9/2013, Until Sat 4/20/13, Normal",
                        "patientInstruction": "take 1 Tab by mouth Daily. ",
                        "timing": {
                            "repeat": {
                                "boundsPeriod": {
                                    "start": "2013-01-09",
                                    "end": "2013-04-20"
                                },
                                "timeOfDay": [
                                    "09:00:00"
                                ]
                            },
                            "code": {
                                "text": "0900"
                            }
                        },
                        "asNeededBoolean": false,
                        "route": {
                            "coding": [
                                {
                                    "system": "http://snomed.info/sct",
                                    "code": "260548002",
                                    "display": "Oral (qualifier value)"
                                },
                                {
                                    "system": "urn:oid:1.2.840.114350.1.13.0.1.7.4.798268.7025",
                                    "code": "15",
                                    "display": "Oral"
                                }
                            ],
                            "text": "Oral"
                        },
                        "doseAndRate": [
                            {
                                "type": {
                                    "coding": [
                                        {
                                            "system": "http://epic.com/CodeSystem/dose-rate-type",
                                            "code": "ordered",
                                            "display": "ordered"
                                        }
                                    ],
                                    "text": "ordered"
                                },
                                "doseQuantity": {
                                    "value": 1,
                                    "unit": "tablet",
                                    "system": "http://unitsofmeasure.org",
                                    "code": "{tbl}"
                                }
                            }
                        ]
                    }
                ],
                "dispenseRequest": {
                    "validityPeriod": {
                        "start": "2013-01-09",
                        "end": "2013-04-20"
                    },
                    "numberOfRepeatsAllowed": 1
                }
            },
            "search": {
                "mode": "match"
            }
        },
        {
            "link": [
                {
                    "relation": "self",
                    "url": "https://appmarket.epic.com/interconnect-amcurprd-oauth/api/FHIR/R4/MedicationRequest/eZBYPJ3PNtSUn3IcMU-uBbw3"
                }
            ],
            "fullUrl": "https://appmarket.epic.com/interconnect-amcurprd-oauth/api/FHIR/R4/MedicationRequest/eZBYPJ3PNtSUn3IcMU-uBbw3",
            "resource": {
                "resourceType": "MedicationRequest",
                "id": "eZBYPJ3PNtSUn3IcMU-uBbw3",
                "identifier": [
                    {
                        "use": "usual",
                        "system": "urn:oid:1.2.840.114350.1.13.0.1.7.2.798268",
                        "value": "879387"
                    }
                ],
                "status": "stopped",
                "intent": "plan",
                "category": [
                    {
                        "coding": [
                            {
                                "system": "http://terminology.hl7.org/CodeSystem/medicationrequest-category",
                                "code": "community",
                                "display": "Community"
                            }
                        ],
                        "text": "Community"
                    }
                ],
                "reportedBoolean": true,
                "medicationReference": {
                    "reference": "Medication/elDU0FxAVaBfoGItoj3nk0d8ZZMVgZLDXyPnKRnSQPzGgOWq-U5j6nZsjLUQHHUA73",
                    "display": "triamterene-hydroCHLOROthiazide (DYAZIDE) capsule 37.5-25 mg"
                },
                "subject": {
                    "reference": "Patient/eD9Lyzs-ab83UnHh.C9ZKDg3",
                    "display": "Orders, Ben"
                },
                "encounter": {
                    "reference": "Encounter/eSI1M.mxEGEfgn2v5ATr9OQ3",
                    "identifier": {
                        "use": "usual",
                        "system": "urn:oid:1.2.840.114350.1.13.0.1.7.3.698084.8",
                        "value": "8139"
                    },
                    "display": "Office Visit"
                },
                "authoredOn": "2013-01-09T23:32:49Z",
                "requester": {
                    "extension": [
                        {
                            "valueCode": "unknown",
                            "url": "http://hl7.org/fhir/StructureDefinition/data-absent-reason"
                        }
                    ]
                },
                "recorder": {
                    "reference": "Practitioner/eM5CWtq15N0WJeuCet5bJlQ3",
                    "type": "Practitioner",
                    "display": "Physician Family Medicine, MD"
                },
                "courseOfTherapyType": {
                    "coding": [
                        {
                            "system": "http://terminology.hl7.org/CodeSystem/medicationrequest-course-of-therapy",
                            "code": "acute",
                            "display": "Short course (acute) therapy"
                        }
                    ],
                    "text": "Short course (acute) therapy"
                },
                "dosageInstruction": [
                    {
                        "text": "take 1 Tab by mouth Daily. , Starting 9/25/2012, Until Wed 1/9/13, Historical Med",
                        "patientInstruction": "take 1 Tab by mouth Daily. ",
                        "timing": {
                            "repeat": {
                                "boundsPeriod": {
                                    "start": "2012-09-25",
                                    "end": "2013-01-09"
                                },
                                "timeOfDay": [
                                    "09:00:00"
                                ]
                            },
                            "code": {
                                "text": "0900"
                            }
                        },
                        "asNeededBoolean": false,
                        "route": {
                            "coding": [
                                {
                                    "system": "http://snomed.info/sct",
                                    "code": "260548002",
                                    "display": "Oral (qualifier value)"
                                },
                                {
                                    "system": "urn:oid:1.2.840.114350.1.13.0.1.7.4.798268.7025",
                                    "code": "15",
                                    "display": "Oral"
                                }
                            ],
                            "text": "Oral"
                        },
                        "doseAndRate": [
                            {
                                "type": {
                                    "coding": [
                                        {
                                            "system": "http://epic.com/CodeSystem/dose-rate-type",
                                            "code": "ordered",
                                            "display": "ordered"
                                        }
                                    ],
                                    "text": "ordered"
                                },
                                "doseQuantity": {
                                    "value": 1,
                                    "unit": "tablet",
                                    "system": "http://unitsofmeasure.org",
                                    "code": "{tbl}"
                                }
                            }
                        ]
                    }
                ],
                "dispenseRequest": {
                    "validityPeriod": {
                        "start": "2012-09-25",
                        "end": "2013-01-09"
                    },
                    "numberOfRepeatsAllowed": 0
                }
            },
            "search": {
                "mode": "match"
            }
        },
        {
            "link": [
                {
                    "relation": "self",
                    "url": "https://appmarket.epic.com/interconnect-amcurprd-oauth/api/FHIR/R4/MedicationRequest/ebI.om9BfFwNoRcY2tiQqfA3"
                }
            ],
            "fullUrl": "https://appmarket.epic.com/interconnect-amcurprd-oauth/api/FHIR/R4/MedicationRequest/ebI.om9BfFwNoRcY2tiQqfA3",
            "resource": {
                "resourceType": "MedicationRequest",
                "id": "ebI.om9BfFwNoRcY2tiQqfA3",
                "identifier": [
                    {
                        "use": "usual",
                        "system": "urn:oid:1.2.840.114350.1.13.0.1.7.2.798268",
                        "value": "879394"
                    }
                ],
                "status": "completed",
                "intent": "order",
                "category": [
                    {
                        "coding": [
                            {
                                "system": "http://terminology.hl7.org/CodeSystem/medicationrequest-category",
                                "code": "community",
                                "display": "Community"
                            }
                        ],
                        "text": "Community"
                    }
                ],
                "medicationReference": {
                    "reference": "Medication/eSXWCxLKQS56lH9uth9o5wcMf-xczS.EBxCBzTywKzwbJzf5.iVxtqD.EKxF1pMx33",
                    "display": "nicotine (NICODERM CQ) patch 21 mg/24 hr"
                },
                "subject": {
                    "reference": "Patient/eD9Lyzs-ab83UnHh.C9ZKDg3",
                    "display": "Orders, Ben"
                },
                "encounter": {
                    "reference": "Encounter/eNU42gf48Me.65ekQCL1LVw3",
                    "identifier": {
                        "use": "usual",
                        "system": "urn:oid:1.2.840.114350.1.13.0.1.7.3.698084.8",
                        "value": "8140"
                    },
                    "display": "Office Visit"
                },
                "authoredOn": "2012-11-05T22:59:51Z",
                "requester": {
                    "reference": "Practitioner/eM5CWtq15N0WJeuCet5bJlQ3",
                    "type": "Practitioner",
                    "display": "Physician Family Medicine, MD"
                },
                "recorder": {
                    "reference": "Practitioner/eM5CWtq15N0WJeuCet5bJlQ3",
                    "type": "Practitioner",
                    "display": "Physician Family Medicine, MD"
                },
                "courseOfTherapyType": {
                    "coding": [
                        {
                            "system": "http://terminology.hl7.org/CodeSystem/medicationrequest-course-of-therapy",
                            "code": "acute",
                            "display": "Short course (acute) therapy"
                        }
                    ],
                    "text": "Short course (acute) therapy"
                },
                "dosageInstruction": [
                    {
                        "text": "1 Patch by Transdermal route Every 24 hours. , Starting 11/5/2012, Until Tue 11/5/13, Normal",
                        "patientInstruction": "1 Patch by Transdermal route Every 24 hours. ",
                        "timing": {
                            "repeat": {
                                "boundsPeriod": {
                                    "start": "2012-11-05"
                                },
                                "frequency": 1,
                                "period": 24,
                                "periodUnit": "h"
                            },
                            "code": {
                                "text": "Every 24 hours"
                            }
                        },
                        "asNeededBoolean": false,
                        "route": {
                            "coding": [
                                {
                                    "system": "urn:oid:1.2.840.114350.1.13.0.1.7.4.798268.7025",
                                    "code": "20",
                                    "display": "Transdermal"
                                }
                            ],
                            "text": "Transdermal"
                        },
                        "doseAndRate": [
                            {
                                "type": {
                                    "coding": [
                                        {
                                            "system": "http://epic.com/CodeSystem/dose-rate-type",
                                            "code": "calculated",
                                            "display": "calculated"
                                        }
                                    ],
                                    "text": "calculated"
                                },
                                "doseQuantity": {
                                    "value": 1,
                                    "unit": "patch",
                                    "system": "http://unitsofmeasure.org",
                                    "code": "{patch}"
                                }
                            },
                            {
                                "type": {
                                    "coding": [
                                        {
                                            "system": "http://epic.com/CodeSystem/dose-rate-type",
                                            "code": "admin-amount",
                                            "display": "admin-amount"
                                        }
                                    ],
                                    "text": "admin-amount"
                                },
                                "doseQuantity": {
                                    "value": 1,
                                    "unit": "patch",
                                    "system": "http://unitsofmeasure.org",
                                    "code": "{patch}"
                                }
                            },
                            {
                                "type": {
                                    "coding": [
                                        {
                                            "system": "http://epic.com/CodeSystem/dose-rate-type",
                                            "code": "ordered",
                                            "display": "ordered"
                                        }
                                    ],
                                    "text": "ordered"
                                },
                                "doseQuantity": {
                                    "value": 1,
                                    "unit": "patch",
                                    "system": "http://unitsofmeasure.org",
                                    "code": "{patch}"
                                }
                            }
                        ]
                    }
                ],
                "dispenseRequest": {
                    "validityPeriod": {
                        "start": "2012-11-05"
                    },
                    "numberOfRepeatsAllowed": 2
                }
            },
            "search": {
                "mode": "match"
            }
        },
        {
            "link": [
                {
                    "relation": "self",
                    "url": "https://appmarket.epic.com/interconnect-amcurprd-oauth/api/FHIR/R4/MedicationRequest/evg2vmFjb0KaSsi7b.JuGMA3"
                }
            ],
            "fullUrl": "https://appmarket.epic.com/interconnect-amcurprd-oauth/api/FHIR/R4/MedicationRequest/evg2vmFjb0KaSsi7b.JuGMA3",
            "resource": {
                "resourceType": "MedicationRequest",
                "id": "evg2vmFjb0KaSsi7b.JuGMA3",
                "identifier": [
                    {
                        "use": "usual",
                        "system": "urn:oid:1.2.840.114350.1.13.0.1.7.2.798268",
                        "value": "879388"
                    }
                ],
                "status": "stopped",
                "intent": "plan",
                "category": [
                    {
                        "coding": [
                            {
                                "system": "http://terminology.hl7.org/CodeSystem/medicationrequest-category",
                                "code": "community",
                                "display": "Community"
                            }
                        ],
                        "text": "Community"
                    }
                ],
                "reportedBoolean": true,
                "medicationReference": {
                    "reference": "Medication/e4a358bdlVtjl8Jqsf3-8u-40sWrwvz1n69y3fffFsFIPN8wMKFgwXBEaE6Qt953R3",
                    "display": "famotidine (PEPCID) tablet"
                },
                "subject": {
                    "reference": "Patient/eD9Lyzs-ab83UnHh.C9ZKDg3",
                    "display": "Orders, Ben"
                },
                "encounter": {
                    "reference": "Encounter/eSI1M.mxEGEfgn2v5ATr9OQ3",
                    "identifier": {
                        "use": "usual",
                        "system": "urn:oid:1.2.840.114350.1.13.0.1.7.3.698084.8",
                        "value": "8139"
                    },
                    "display": "Office Visit"
                },
                "authoredOn": "2013-01-09T23:32:50Z",
                "requester": {
                    "extension": [
                        {
                            "valueCode": "unknown",
                            "url": "http://hl7.org/fhir/StructureDefinition/data-absent-reason"
                        }
                    ]
                },
                "recorder": {
                    "reference": "Practitioner/eM5CWtq15N0WJeuCet5bJlQ3",
                    "type": "Practitioner",
                    "display": "Physician Family Medicine, MD"
                },
                "courseOfTherapyType": {
                    "coding": [
                        {
                            "system": "http://terminology.hl7.org/CodeSystem/medicationrequest-course-of-therapy",
                            "code": "acute",
                            "display": "Short course (acute) therapy"
                        }
                    ],
                    "text": "Short course (acute) therapy"
                },
                "dosageInstruction": [
                    {
                        "text": "take 1 Tab by mouth 2 times daily. , Starting 9/24/2013, Until Wed 1/9/13, Historical Med",
                        "patientInstruction": "take 1 Tab by mouth 2 times daily. ",
                        "timing": {
                            "repeat": {
                                "boundsPeriod": {
                                    "start": "2013-01-09",
                                    "end": "2013-01-09"
                                },
                                "timeOfDay": [
                                    "09:00:00",
                                    "18:00:00"
                                ]
                            },
                            "code": {
                                "text": "0900, 1800"
                            }
                        },
                        "asNeededBoolean": false,
                        "route": {
                            "coding": [
                                {
                                    "system": "http://snomed.info/sct",
                                    "code": "260548002",
                                    "display": "Oral (qualifier value)"
                                },
                                {
                                    "system": "urn:oid:1.2.840.114350.1.13.0.1.7.4.798268.7025",
                                    "code": "15",
                                    "display": "Oral"
                                }
                            ],
                            "text": "Oral"
                        },
                        "doseAndRate": [
                            {
                                "type": {
                                    "coding": [
                                        {
                                            "system": "http://epic.com/CodeSystem/dose-rate-type",
                                            "code": "calculated",
                                            "display": "calculated"
                                        }
                                    ],
                                    "text": "calculated"
                                },
                                "doseQuantity": {
                                    "value": 20,
                                    "unit": "mg",
                                    "system": "http://unitsofmeasure.org",
                                    "code": "mg"
                                }
                            },
                            {
                                "type": {
                                    "coding": [
                                        {
                                            "system": "http://epic.com/CodeSystem/dose-rate-type",
                                            "code": "admin-amount",
                                            "display": "admin-amount"
                                        }
                                    ],
                                    "text": "admin-amount"
                                },
                                "doseQuantity": {
                                    "value": 1,
                                    "unit": "tablet",
                                    "system": "http://unitsofmeasure.org",
                                    "code": "{tbl}"
                                }
                            },
                            {
                                "type": {
                                    "coding": [
                                        {
                                            "system": "http://epic.com/CodeSystem/dose-rate-type",
                                            "code": "ordered",
                                            "display": "ordered"
                                        }
                                    ],
                                    "text": "ordered"
                                },
                                "doseQuantity": {
                                    "value": 20,
                                    "unit": "mg",
                                    "system": "http://unitsofmeasure.org",
                                    "code": "mg"
                                }
                            }
                        ]
                    }
                ],
                "dispenseRequest": {
                    "validityPeriod": {
                        "start": "2013-01-09",
                        "end": "2013-01-09"
                    },
                    "numberOfRepeatsAllowed": 0
                }
            },
            "search": {
                "mode": "match"
            }
        },
        {
            "link": [
                {
                    "relation": "self",
                    "url": "https://appmarket.epic.com/interconnect-amcurprd-oauth/api/FHIR/R4/MedicationRequest/ezHpqRwnbdquQohM.2-36CA3"
                }
            ],
            "fullUrl": "https://appmarket.epic.com/interconnect-amcurprd-oauth/api/FHIR/R4/MedicationRequest/ezHpqRwnbdquQohM.2-36CA3",
            "resource": {
                "resourceType": "MedicationRequest",
                "id": "ezHpqRwnbdquQohM.2-36CA3",
                "identifier": [
                    {
                        "use": "usual",
                        "system": "urn:oid:1.2.840.114350.1.13.0.1.7.2.798268",
                        "value": "879396"
                    }
                ],
                "status": "completed",
                "intent": "order",
                "category": [
                    {
                        "coding": [
                            {
                                "system": "http://terminology.hl7.org/CodeSystem/medicationrequest-category",
                                "code": "community",
                                "display": "Community"
                            }
                        ],
                        "text": "Community"
                    }
                ],
                "medicationReference": {
                    "reference": "Medication/ec2EdIz35pNyygTeozpkhwza23XacFpPMwjc6k6FsGXM5MBgHCwg3Nb46gy-K0rxW3",
                    "display": "nicotine (NICODERM CQ) patch  7 mg/24 hr"
                },
                "subject": {
                    "reference": "Patient/eD9Lyzs-ab83UnHh.C9ZKDg3",
                    "display": "Orders, Ben"
                },
                "encounter": {
                    "reference": "Encounter/eNU42gf48Me.65ekQCL1LVw3",
                    "identifier": {
                        "use": "usual",
                        "system": "urn:oid:1.2.840.114350.1.13.0.1.7.3.698084.8",
                        "value": "8140"
                    },
                    "display": "Office Visit"
                },
                "authoredOn": "2012-11-05T22:59:51Z",
                "requester": {
                    "reference": "Practitioner/eM5CWtq15N0WJeuCet5bJlQ3",
                    "type": "Practitioner",
                    "display": "Physician Family Medicine, MD"
                },
                "recorder": {
                    "reference": "Practitioner/eM5CWtq15N0WJeuCet5bJlQ3",
                    "type": "Practitioner",
                    "display": "Physician Family Medicine, MD"
                },
                "courseOfTherapyType": {
                    "coding": [
                        {
                            "system": "http://terminology.hl7.org/CodeSystem/medicationrequest-course-of-therapy",
                            "code": "acute",
                            "display": "Short course (acute) therapy"
                        }
                    ],
                    "text": "Short course (acute) therapy"
                },
                "dosageInstruction": [
                    {
                        "text": "1 Patch by Transdermal route Every 24 hours. , Starting 11/5/2012, Until Tue 11/5/13, Normal",
                        "patientInstruction": "1 Patch by Transdermal route Every 24 hours. ",
                        "timing": {
                            "repeat": {
                                "boundsPeriod": {
                                    "start": "2012-11-05"
                                },
                                "frequency": 1,
                                "period": 24,
                                "periodUnit": "h"
                            },
                            "code": {
                                "text": "Every 24 hours"
                            }
                        },
                        "asNeededBoolean": false,
                        "route": {
                            "coding": [
                                {
                                    "system": "urn:oid:1.2.840.114350.1.13.0.1.7.4.798268.7025",
                                    "code": "20",
                                    "display": "Transdermal"
                                }
                            ],
                            "text": "Transdermal"
                        },
                        "doseAndRate": [
                            {
                                "type": {
                                    "coding": [
                                        {
                                            "system": "http://epic.com/CodeSystem/dose-rate-type",
                                            "code": "calculated",
                                            "display": "calculated"
                                        }
                                    ],
                                    "text": "calculated"
                                },
                                "doseQuantity": {
                                    "value": 1,
                                    "unit": "patch",
                                    "system": "http://unitsofmeasure.org",
                                    "code": "{patch}"
                                }
                            },
                            {
                                "type": {
                                    "coding": [
                                        {
                                            "system": "http://epic.com/CodeSystem/dose-rate-type",
                                            "code": "admin-amount",
                                            "display": "admin-amount"
                                        }
                                    ],
                                    "text": "admin-amount"
                                },
                                "doseQuantity": {
                                    "value": 1,
                                    "unit": "patch",
                                    "system": "http://unitsofmeasure.org",
                                    "code": "{patch}"
                                }
                            },
                            {
                                "type": {
                                    "coding": [
                                        {
                                            "system": "http://epic.com/CodeSystem/dose-rate-type",
                                            "code": "ordered",
                                            "display": "ordered"
                                        }
                                    ],
                                    "text": "ordered"
                                },
                                "doseQuantity": {
                                    "value": 1,
                                    "unit": "patch",
                                    "system": "http://unitsofmeasure.org",
                                    "code": "{patch}"
                                }
                            }
                        ]
                    }
                ],
                "dispenseRequest": {
                    "validityPeriod": {
                        "start": "2012-11-05"
                    },
                    "numberOfRepeatsAllowed": 2
                }
            },
            "search": {
                "mode": "match"
            }
        },
        {
            "link": [
                {
                    "relation": "self",
                    "url": "https://appmarket.epic.com/interconnect-amcurprd-oauth/api/FHIR/R4/Medication/e.LXHYUhKafD4VXBvv9kq-w9z13IxwXvT89jbOZDx5wvEvFCKJvn8MLCvIpjyaF4D3"
                }
            ],
            "fullUrl": "https://appmarket.epic.com/interconnect-amcurprd-oauth/api/FHIR/R4/Medication/e.LXHYUhKafD4VXBvv9kq-w9z13IxwXvT89jbOZDx5wvEvFCKJvn8MLCvIpjyaF4D3",
            "resource": {
                "resourceType": "Medication",
                "id": "e.LXHYUhKafD4VXBvv9kq-w9z13IxwXvT89jbOZDx5wvEvFCKJvn8MLCvIpjyaF4D3",
                "code": {
                    "coding": [
                        {
                            "system": "urn:oid:2.16.840.1.113883.6.253",
                            "code": "68891"
                        },
                        {
                            "system": "urn:oid:2.16.840.1.113883.6.68",
                            "code": "34000010127030"
                        },
                        {
                            "system": "urn:oid:2.16.840.1.113883.6.162",
                            "code": "30849"
                        },
                        {
                            "system": "http://www.nlm.nih.gov/research/umls/rxnorm",
                            "code": "3443"
                        },
                        {
                            "system": "http://www.nlm.nih.gov/research/umls/rxnorm",
                            "code": "203211"
                        },
                        {
                            "system": "http://www.nlm.nih.gov/research/umls/rxnorm",
                            "code": "830845"
                        }
                    ],
                    "text": "dilTIAZem (CARDIZEM CD) 24 hr capsule"
                },
                "form": {
                    "coding": [
                        {
                            "system": "urn:oid:1.2.840.114350.1.13.0.1.7.4.698288.310",
                            "code": "CP24",
                            "display": "capsule sustained-release 24 hr"
                        }
                    ],
                    "text": "capsule sustained-release 24 hr"
                },
                "ingredient": [
                    {
                        "itemCodeableConcept": {
                            "coding": [
                                {
                                    "system": "urn:oid:2.16.840.1.113883.6.253",
                                    "code": "68891"
                                },
                                {
                                    "system": "urn:oid:2.16.840.1.113883.6.68",
                                    "code": "34000010127030"
                                },
                                {
                                    "system": "urn:oid:2.16.840.1.113883.6.162",
                                    "code": "30849"
                                },
                                {
                                    "system": "http://www.nlm.nih.gov/research/umls/rxnorm",
                                    "code": "3443"
                                },
                                {
                                    "system": "http://www.nlm.nih.gov/research/umls/rxnorm",
                                    "code": "203211"
                                },
                                {
                                    "system": "http://www.nlm.nih.gov/research/umls/rxnorm",
                                    "code": "830845"
                                }
                            ],
                            "text": "dilTIAZem (CARDIZEM CD) 24 hr capsule"
                        },
                        "strength": {
                            "numerator": {
                                "value": 180,
                                "unit": "MG",
                                "system": "http://unitsofmeasure.org",
                                "code": "mg"
                            },
                            "denominator": {
                                "value": 180,
                                "unit": "MG",
                                "system": "http://unitsofmeasure.org",
                                "code": "mg"
                            }
                        }
                    }
                ]
            },
            "search": {
                "mode": "include"
            }
        },
        {
            "link": [
                {
                    "relation": "self",
                    "url": "https://appmarket.epic.com/interconnect-amcurprd-oauth/api/FHIR/R4/Medication/e4a358bdlVtjl8Jqsf3-8u-40sWrwvz1n69y3fffFsFIPN8wMKFgwXBEaE6Qt953R3"
                }
            ],
            "fullUrl": "https://appmarket.epic.com/interconnect-amcurprd-oauth/api/FHIR/R4/Medication/e4a358bdlVtjl8Jqsf3-8u-40sWrwvz1n69y3fffFsFIPN8wMKFgwXBEaE6Qt953R3",
            "resource": {
                "resourceType": "Medication",
                "id": "e4a358bdlVtjl8Jqsf3-8u-40sWrwvz1n69y3fffFsFIPN8wMKFgwXBEaE6Qt953R3",
                "code": {
                    "coding": [
                        {
                            "system": "urn:oid:2.16.840.1.113883.6.253",
                            "code": "27367"
                        },
                        {
                            "system": "urn:oid:2.16.840.1.113883.6.68",
                            "code": "49200030000320"
                        },
                        {
                            "system": "urn:oid:2.16.840.1.113883.6.162",
                            "code": "02712"
                        },
                        {
                            "system": "http://www.nlm.nih.gov/research/umls/rxnorm",
                            "code": "4278"
                        },
                        {
                            "system": "http://www.nlm.nih.gov/research/umls/rxnorm",
                            "code": "310273"
                        }
                    ],
                    "text": "famotidine (PEPCID) tablet"
                },
                "form": {
                    "coding": [
                        {
                            "system": "urn:oid:1.2.840.114350.1.13.0.1.7.4.698288.310",
                            "code": "TABS",
                            "display": "tablet"
                        }
                    ],
                    "text": "tablet"
                },
                "ingredient": [
                    {
                        "itemCodeableConcept": {
                            "coding": [
                                {
                                    "system": "urn:oid:2.16.840.1.113883.6.253",
                                    "code": "27367"
                                },
                                {
                                    "system": "urn:oid:2.16.840.1.113883.6.68",
                                    "code": "49200030000320"
                                },
                                {
                                    "system": "urn:oid:2.16.840.1.113883.6.162",
                                    "code": "02712"
                                },
                                {
                                    "system": "http://www.nlm.nih.gov/research/umls/rxnorm",
                                    "code": "4278"
                                },
                                {
                                    "system": "http://www.nlm.nih.gov/research/umls/rxnorm",
                                    "code": "310273"
                                }
                            ],
                            "text": "famotidine (PEPCID) tablet"
                        },
                        "strength": {
                            "numerator": {
                                "value": 20,
                                "unit": "MG",
                                "system": "http://unitsofmeasure.org",
                                "code": "mg"
                            },
                            "denominator": {
                                "value": 20,
                                "unit": "MG",
                                "system": "http://unitsofmeasure.org",
                                "code": "mg"
                            }
                        }
                    }
                ]
            },
            "search": {
                "mode": "include"
            }
        },
        {
            "link": [
                {
                    "relation": "self",
                    "url": "https://appmarket.epic.com/interconnect-amcurprd-oauth/api/FHIR/R4/Medication/e4a358bdlVtjl8Jqsf3-8u7IQV2ZYnJe6RmM46ClwkMSGV43-IVGPilDLyrh-QNqy3"
                }
            ],
            "fullUrl": "https://appmarket.epic.com/interconnect-amcurprd-oauth/api/FHIR/R4/Medication/e4a358bdlVtjl8Jqsf3-8u7IQV2ZYnJe6RmM46ClwkMSGV43-IVGPilDLyrh-QNqy3",
            "resource": {
                "resourceType": "Medication",
                "id": "e4a358bdlVtjl8Jqsf3-8u7IQV2ZYnJe6RmM46ClwkMSGV43-IVGPilDLyrh-QNqy3",
                "code": {
                    "coding": [
                        {
                            "system": "urn:oid:2.16.840.1.113883.6.253",
                            "code": "27367"
                        },
                        {
                            "system": "urn:oid:2.16.840.1.113883.6.68",
                            "code": "49200030000320"
                        },
                        {
                            "system": "urn:oid:2.16.840.1.113883.6.162",
                            "code": "02712"
                        },
                        {
                            "system": "http://www.nlm.nih.gov/research/umls/rxnorm",
                            "code": "4278"
                        },
                        {
                            "system": "http://www.nlm.nih.gov/research/umls/rxnorm",
                            "code": "310273"
                        }
                    ],
                    "text": "famotidine (PEPCID) tablet"
                },
                "form": {
                    "coding": [
                        {
                            "system": "urn:oid:1.2.840.114350.1.13.0.1.7.4.698288.310",
                            "code": "TABS",
                            "display": "tablet"
                        }
                    ],
                    "text": "tablet"
                },
                "ingredient": [
                    {
                        "itemCodeableConcept": {
                            "coding": [
                                {
                                    "system": "urn:oid:2.16.840.1.113883.6.253",
                                    "code": "27367"
                                },
                                {
                                    "system": "urn:oid:2.16.840.1.113883.6.68",
                                    "code": "49200030000320"
                                },
                                {
                                    "system": "urn:oid:2.16.840.1.113883.6.162",
                                    "code": "02712"
                                },
                                {
                                    "system": "http://www.nlm.nih.gov/research/umls/rxnorm",
                                    "code": "4278"
                                },
                                {
                                    "system": "http://www.nlm.nih.gov/research/umls/rxnorm",
                                    "code": "310273"
                                }
                            ],
                            "text": "famotidine (PEPCID) tablet"
                        },
                        "strength": {
                            "numerator": {
                                "value": 20,
                                "unit": "MG",
                                "system": "http://unitsofmeasure.org",
                                "code": "mg"
                            },
                            "denominator": {
                                "value": 20,
                                "unit": "MG",
                                "system": "http://unitsofmeasure.org",
                                "code": "mg"
                            }
                        }
                    }
                ]
            },
            "search": {
                "mode": "include"
            }
        },
        {
            "link": [
                {
                    "relation": "self",
                    "url": "https://appmarket.epic.com/interconnect-amcurprd-oauth/api/FHIR/R4/Encounter/e8fm2ntqkHmIvFq4Q3YcYNA3"
                }
            ],
            "fullUrl": "https://appmarket.epic.com/interconnect-amcurprd-oauth/api/FHIR/R4/Encounter/e8fm2ntqkHmIvFq4Q3YcYNA3",
            "resource": {
                "resourceType": "Encounter",
                "id": "e8fm2ntqkHmIvFq4Q3YcYNA3",
                "identifier": [
                    {
                        "use": "usual",
                        "system": "urn:oid:1.2.840.114350.1.13.0.1.7.3.698084.8",
                        "value": "8134"
                    }
                ],
                "status": "finished",
                "class": {
                    "system": "urn:oid:1.2.840.114350.1.72.1.7.7.10.696784.13260",
                    "code": "13",
                    "display": "Support OP Encounter"
                },
                "type": [
                    {
                        "coding": [
                            {
                                "system": "urn:oid:1.2.840.114350.1.13.0.1.7.10.698084.30",
                                "code": "107",
                                "display": "Refill"
                            }
                        ],
                        "text": "Refill"
                    }
                ],
                "subject": {
                    "reference": "Patient/eD9Lyzs-ab83UnHh.C9ZKDg3",
                    "display": "Orders, Ben"
                },
                "period": {
                    "start": "2013-04-20",
                    "end": "2013-04-20"
                },
                "reasonCode": [
                    {
                        "coding": [
                            {
                                "system": "urn:oid:1.2.840.114350.1.13.0.1.7.2.728286",
                                "code": "160383",
                                "display": "Med Refill"
                            }
                        ],
                        "text": "Med Refill"
                    }
                ],
                "location": [
                    {
                        "location": {
                            "reference": "Location/e4W4rmGe9QzuGm2Dy4NBqVc0KDe6yGld6HW95UuN-Qd03",
                            "display": "EMC Family Medicine"
                        }
                    }
                ]
            },
            "search": {
                "mode": "include"
            }
        },
        {
            "link": [
                {
                    "relation": "self",
                    "url": "https://appmarket.epic.com/interconnect-amcurprd-oauth/api/FHIR/R4/Medication/eA9IZM.lvQVOXTDPYrt97mhqCvw4YAV1pr8KRoi-hmmgfQZ82QCzcXCpCU6B7-lL93"
                }
            ],
            "fullUrl": "https://appmarket.epic.com/interconnect-amcurprd-oauth/api/FHIR/R4/Medication/eA9IZM.lvQVOXTDPYrt97mhqCvw4YAV1pr8KRoi-hmmgfQZ82QCzcXCpCU6B7-lL93",
            "resource": {
                "resourceType": "Medication",
                "id": "eA9IZM.lvQVOXTDPYrt97mhqCvw4YAV1pr8KRoi-hmmgfQZ82QCzcXCpCU6B7-lL93",
                "code": {
                    "coding": [
                        {
                            "system": "urn:oid:2.16.840.1.113883.6.253",
                            "code": "12001"
                        },
                        {
                            "system": "urn:oid:2.16.840.1.113883.6.68",
                            "code": "28100010100320"
                        },
                        {
                            "system": "urn:oid:2.16.840.1.113883.6.162",
                            "code": "00937"
                        },
                        {
                            "system": "http://www.nlm.nih.gov/research/umls/rxnorm",
                            "code": "10582"
                        },
                        {
                            "system": "http://www.nlm.nih.gov/research/umls/rxnorm",
                            "code": "40144"
                        },
                        {
                            "system": "http://www.nlm.nih.gov/research/umls/rxnorm",
                            "code": "892246"
                        },
                        {
                            "system": "http://www.nlm.nih.gov/research/umls/rxnorm",
                            "code": "1372638"
                        }
                    ],
                    "text": "levothyroxine (SYNTHROID, LEVOTHROID) tablet"
                },
                "form": {
                    "coding": [
                        {
                            "system": "urn:oid:1.2.840.114350.1.13.0.1.7.4.698288.310",
                            "code": "TABS",
                            "display": "tablet"
                        }
                    ],
                    "text": "tablet"
                },
                "ingredient": [
                    {
                        "itemCodeableConcept": {
                            "coding": [
                                {
                                    "system": "urn:oid:2.16.840.1.113883.6.253",
                                    "code": "12001"
                                },
                                {
                                    "system": "urn:oid:2.16.840.1.113883.6.68",
                                    "code": "28100010100320"
                                },
                                {
                                    "system": "urn:oid:2.16.840.1.113883.6.162",
                                    "code": "00937"
                                },
                                {
                                    "system": "http://www.nlm.nih.gov/research/umls/rxnorm",
                                    "code": "10582"
                                },
                                {
                                    "system": "http://www.nlm.nih.gov/research/umls/rxnorm",
                                    "code": "40144"
                                },
                                {
                                    "system": "http://www.nlm.nih.gov/research/umls/rxnorm",
                                    "code": "892246"
                                },
                                {
                                    "system": "http://www.nlm.nih.gov/research/umls/rxnorm",
                                    "code": "1372638"
                                }
                            ],
                            "text": "levothyroxine (SYNTHROID, LEVOTHROID) tablet"
                        },
                        "strength": {
                            "numerator": {
                                "value": 100,
                                "unit": "MCG",
                                "system": "http://unitsofmeasure.org",
                                "code": "ug"
                            },
                            "denominator": {
                                "value": 100,
                                "unit": "MCG",
                                "system": "http://unitsofmeasure.org",
                                "code": "ug"
                            }
                        }
                    }
                ]
            },
            "search": {
                "mode": "include"
            }
        },
        {
            "link": [
                {
                    "relation": "self",
                    "url": "https://appmarket.epic.com/interconnect-amcurprd-oauth/api/FHIR/R4/Medication/eA9IZM.lvQVOXTDPYrt97mnq4AttvuvI2S31QHivLbfqctUnjDvaXR5upLr5pBtsR3"
                }
            ],
            "fullUrl": "https://appmarket.epic.com/interconnect-amcurprd-oauth/api/FHIR/R4/Medication/eA9IZM.lvQVOXTDPYrt97mnq4AttvuvI2S31QHivLbfqctUnjDvaXR5upLr5pBtsR3",
            "resource": {
                "resourceType": "Medication",
                "id": "eA9IZM.lvQVOXTDPYrt97mnq4AttvuvI2S31QHivLbfqctUnjDvaXR5upLr5pBtsR3",
                "code": {
                    "coding": [
                        {
                            "system": "urn:oid:2.16.840.1.113883.6.253",
                            "code": "12001"
                        },
                        {
                            "system": "urn:oid:2.16.840.1.113883.6.68",
                            "code": "28100010100320"
                        },
                        {
                            "system": "urn:oid:2.16.840.1.113883.6.162",
                            "code": "00937"
                        },
                        {
                            "system": "http://www.nlm.nih.gov/research/umls/rxnorm",
                            "code": "10582"
                        },
                        {
                            "system": "http://www.nlm.nih.gov/research/umls/rxnorm",
                            "code": "40144"
                        },
                        {
                            "system": "http://www.nlm.nih.gov/research/umls/rxnorm",
                            "code": "892246"
                        },
                        {
                            "system": "http://www.nlm.nih.gov/research/umls/rxnorm",
                            "code": "1372638"
                        }
                    ],
                    "text": "levothyroxine (SYNTHROID, LEVOTHROID) tablet"
                },
                "form": {
                    "coding": [
                        {
                            "system": "urn:oid:1.2.840.114350.1.13.0.1.7.4.698288.310",
                            "code": "TABS",
                            "display": "tablet"
                        }
                    ],
                    "text": "tablet"
                },
                "ingredient": [
                    {
                        "itemCodeableConcept": {
                            "coding": [
                                {
                                    "system": "urn:oid:2.16.840.1.113883.6.253",
                                    "code": "12001"
                                },
                                {
                                    "system": "urn:oid:2.16.840.1.113883.6.68",
                                    "code": "28100010100320"
                                },
                                {
                                    "system": "urn:oid:2.16.840.1.113883.6.162",
                                    "code": "00937"
                                },
                                {
                                    "system": "http://www.nlm.nih.gov/research/umls/rxnorm",
                                    "code": "10582"
                                },
                                {
                                    "system": "http://www.nlm.nih.gov/research/umls/rxnorm",
                                    "code": "40144"
                                },
                                {
                                    "system": "http://www.nlm.nih.gov/research/umls/rxnorm",
                                    "code": "892246"
                                },
                                {
                                    "system": "http://www.nlm.nih.gov/research/umls/rxnorm",
                                    "code": "1372638"
                                }
                            ],
                            "text": "levothyroxine (SYNTHROID, LEVOTHROID) tablet"
                        },
                        "strength": {
                            "numerator": {
                                "value": 100,
                                "unit": "MCG",
                                "system": "http://unitsofmeasure.org",
                                "code": "ug"
                            },
                            "denominator": {
                                "value": 100,
                                "unit": "MCG",
                                "system": "http://unitsofmeasure.org",
                                "code": "ug"
                            }
                        }
                    }
                ]
            },
            "search": {
                "mode": "include"
            }
        },
        {
            "link": [
                {
                    "relation": "self",
                    "url": "https://appmarket.epic.com/interconnect-amcurprd-oauth/api/FHIR/R4/Medication/eAMyTcggmIulnQ2tTBjDzeCNrkYsv1nf05bKyrH0Nza42BqGu-4ogeOxkxseRd9Dc3"
                }
            ],
            "fullUrl": "https://appmarket.epic.com/interconnect-amcurprd-oauth/api/FHIR/R4/Medication/eAMyTcggmIulnQ2tTBjDzeCNrkYsv1nf05bKyrH0Nza42BqGu-4ogeOxkxseRd9Dc3",
            "resource": {
                "resourceType": "Medication",
                "id": "eAMyTcggmIulnQ2tTBjDzeCNrkYsv1nf05bKyrH0Nza42BqGu-4ogeOxkxseRd9Dc3",
                "code": {
                    "coding": [
                        {
                            "system": "urn:oid:2.16.840.1.113883.6.253",
                            "code": "68893"
                        },
                        {
                            "system": "urn:oid:2.16.840.1.113883.6.68",
                            "code": "34000010127040"
                        },
                        {
                            "system": "urn:oid:2.16.840.1.113883.6.162",
                            "code": "30852"
                        },
                        {
                            "system": "http://www.nlm.nih.gov/research/umls/rxnorm",
                            "code": "3443"
                        },
                        {
                            "system": "http://www.nlm.nih.gov/research/umls/rxnorm",
                            "code": "203211"
                        },
                        {
                            "system": "http://www.nlm.nih.gov/research/umls/rxnorm",
                            "code": "830837"
                        }
                    ],
                    "text": "dilTIAZem (CARDIZEM CD) 24 hr capsule"
                },
                "form": {
                    "coding": [
                        {
                            "system": "urn:oid:1.2.840.114350.1.13.0.1.7.4.698288.310",
                            "code": "CP24",
                            "display": "capsule sustained-release 24 hr"
                        }
                    ],
                    "text": "capsule sustained-release 24 hr"
                },
                "ingredient": [
                    {
                        "itemCodeableConcept": {
                            "coding": [
                                {
                                    "system": "urn:oid:2.16.840.1.113883.6.253",
                                    "code": "68893"
                                },
                                {
                                    "system": "urn:oid:2.16.840.1.113883.6.68",
                                    "code": "34000010127040"
                                },
                                {
                                    "system": "urn:oid:2.16.840.1.113883.6.162",
                                    "code": "30852"
                                },
                                {
                                    "system": "http://www.nlm.nih.gov/research/umls/rxnorm",
                                    "code": "3443"
                                },
                                {
                                    "system": "http://www.nlm.nih.gov/research/umls/rxnorm",
                                    "code": "203211"
                                },
                                {
                                    "system": "http://www.nlm.nih.gov/research/umls/rxnorm",
                                    "code": "830837"
                                }
                            ],
                            "text": "dilTIAZem (CARDIZEM CD) 24 hr capsule"
                        },
                        "strength": {
                            "numerator": {
                                "value": 240,
                                "unit": "MG",
                                "system": "http://unitsofmeasure.org",
                                "code": "mg"
                            },
                            "denominator": {
                                "value": 240,
                                "unit": "MG",
                                "system": "http://unitsofmeasure.org",
                                "code": "mg"
                            }
                        }
                    }
                ]
            },
            "search": {
                "mode": "include"
            }
        },
        {
            "link": [
                {
                    "relation": "self",
                    "url": "https://appmarket.epic.com/interconnect-amcurprd-oauth/api/FHIR/R4/Medication/eAMyTcggmIulnQ2tTBjDzeLE461KHs.oZNwAFagf8v1CPIBAO-iBLCBlfwvHfyM6J3"
                }
            ],
            "fullUrl": "https://appmarket.epic.com/interconnect-amcurprd-oauth/api/FHIR/R4/Medication/eAMyTcggmIulnQ2tTBjDzeLE461KHs.oZNwAFagf8v1CPIBAO-iBLCBlfwvHfyM6J3",
            "resource": {
                "resourceType": "Medication",
                "id": "eAMyTcggmIulnQ2tTBjDzeLE461KHs.oZNwAFagf8v1CPIBAO-iBLCBlfwvHfyM6J3",
                "code": {
                    "coding": [
                        {
                            "system": "urn:oid:2.16.840.1.113883.6.253",
                            "code": "68893"
                        },
                        {
                            "system": "urn:oid:2.16.840.1.113883.6.68",
                            "code": "34000010127040"
                        },
                        {
                            "system": "urn:oid:2.16.840.1.113883.6.162",
                            "code": "30852"
                        },
                        {
                            "system": "http://www.nlm.nih.gov/research/umls/rxnorm",
                            "code": "3443"
                        },
                        {
                            "system": "http://www.nlm.nih.gov/research/umls/rxnorm",
                            "code": "203211"
                        },
                        {
                            "system": "http://www.nlm.nih.gov/research/umls/rxnorm",
                            "code": "830837"
                        }
                    ],
                    "text": "dilTIAZem (CARDIZEM CD) 24 hr capsule"
                },
                "form": {
                    "coding": [
                        {
                            "system": "urn:oid:1.2.840.114350.1.13.0.1.7.4.698288.310",
                            "code": "CP24",
                            "display": "capsule sustained-release 24 hr"
                        }
                    ],
                    "text": "capsule sustained-release 24 hr"
                },
                "ingredient": [
                    {
                        "itemCodeableConcept": {
                            "coding": [
                                {
                                    "system": "urn:oid:2.16.840.1.113883.6.253",
                                    "code": "68893"
                                },
                                {
                                    "system": "urn:oid:2.16.840.1.113883.6.68",
                                    "code": "34000010127040"
                                },
                                {
                                    "system": "urn:oid:2.16.840.1.113883.6.162",
                                    "code": "30852"
                                },
                                {
                                    "system": "http://www.nlm.nih.gov/research/umls/rxnorm",
                                    "code": "3443"
                                },
                                {
                                    "system": "http://www.nlm.nih.gov/research/umls/rxnorm",
                                    "code": "203211"
                                },
                                {
                                    "system": "http://www.nlm.nih.gov/research/umls/rxnorm",
                                    "code": "830837"
                                }
                            ],
                            "text": "dilTIAZem (CARDIZEM CD) 24 hr capsule"
                        },
                        "strength": {
                            "numerator": {
                                "value": 240,
                                "unit": "MG",
                                "system": "http://unitsofmeasure.org",
                                "code": "mg"
                            },
                            "denominator": {
                                "value": 240,
                                "unit": "MG",
                                "system": "http://unitsofmeasure.org",
                                "code": "mg"
                            }
                        }
                    }
                ]
            },
            "search": {
                "mode": "include"
            }
        },
        {
            "link": [
                {
                    "relation": "self",
                    "url": "https://appmarket.epic.com/interconnect-amcurprd-oauth/api/FHIR/R4/Medication/eBQbIRqmHguWneK5v8Og9E7Zmgcx4ozb3u0fz2DYn.WfhDlaNG1a4wV31v4FS7jUR3"
                }
            ],
            "fullUrl": "https://appmarket.epic.com/interconnect-amcurprd-oauth/api/FHIR/R4/Medication/eBQbIRqmHguWneK5v8Og9E7Zmgcx4ozb3u0fz2DYn.WfhDlaNG1a4wV31v4FS7jUR3",
            "resource": {
                "resourceType": "Medication",
                "id": "eBQbIRqmHguWneK5v8Og9E7Zmgcx4ozb3u0fz2DYn.WfhDlaNG1a4wV31v4FS7jUR3",
                "code": {
                    "coding": [
                        {
                            "system": "urn:oid:2.16.840.1.113883.6.253",
                            "code": "64915"
                        },
                        {
                            "system": "urn:oid:2.16.840.1.113883.6.68",
                            "code": "62100005008530"
                        },
                        {
                            "system": "urn:oid:2.16.840.1.113883.6.162",
                            "code": "07277"
                        },
                        {
                            "system": "http://www.nlm.nih.gov/research/umls/rxnorm",
                            "code": "7407"
                        },
                        {
                            "system": "http://www.nlm.nih.gov/research/umls/rxnorm",
                            "code": "198029"
                        }
                    ],
                    "text": "nicotine (NICODERM CQ) patch 14 mg/24 hr"
                },
                "form": {
                    "coding": [
                        {
                            "system": "urn:oid:1.2.840.114350.1.13.0.1.7.4.698288.310",
                            "code": "PT24",
                            "display": "patch 24 hour"
                        }
                    ],
                    "text": "patch 24 hour"
                },
                "ingredient": [
                    {
                        "itemCodeableConcept": {
                            "coding": [
                                {
                                    "system": "urn:oid:2.16.840.1.113883.6.253",
                                    "code": "64915"
                                },
                                {
                                    "system": "urn:oid:2.16.840.1.113883.6.68",
                                    "code": "62100005008530"
                                },
                                {
                                    "system": "urn:oid:2.16.840.1.113883.6.162",
                                    "code": "07277"
                                },
                                {
                                    "system": "http://www.nlm.nih.gov/research/umls/rxnorm",
                                    "code": "7407"
                                },
                                {
                                    "system": "http://www.nlm.nih.gov/research/umls/rxnorm",
                                    "code": "198029"
                                }
                            ],
                            "text": "nicotine (NICODERM CQ) patch 14 mg/24 hr"
                        },
                        "strength": {
                            "numerator": {
                                "value": 14,
                                "unit": "MG/24HR"
                            },
                            "denominator": {
                                "value": 14,
                                "unit": "MG/24HR"
                            }
                        }
                    }
                ]
            },
            "search": {
                "mode": "include"
            }
        },
        {
            "link": [
                {
                    "relation": "self",
                    "url": "https://appmarket.epic.com/interconnect-amcurprd-oauth/api/FHIR/R4/Patient/eD9Lyzs-ab83UnHh.C9ZKDg3"
                }
            ],
            "fullUrl": "https://appmarket.epic.com/interconnect-amcurprd-oauth/api/FHIR/R4/Patient/eD9Lyzs-ab83UnHh.C9ZKDg3",
            "resource": {
                "resourceType": "Patient",
                "id": "eD9Lyzs-ab83UnHh.C9ZKDg3",
                "extension": [
                    {
                        "extension": [
                            {
                                "valueCoding": {
                                    "system": "http://terminology.hl7.org/CodeSystem/v3-NullFlavor",
                                    "code": "UNK",
                                    "display": "Unknown"
                                },
                                "url": "ombCategory"
                            },
                            {
                                "valueString": "Unknown",
                                "url": "text"
                            }
                        ],
                        "url": "http://hl7.org/fhir/us/core/StructureDefinition/us-core-race"
                    },
                    {
                        "extension": [
                            {
                                "valueString": "Unknown",
                                "url": "text"
                            }
                        ],
                        "url": "http://hl7.org/fhir/us/core/StructureDefinition/us-core-ethnicity"
                    },
                    {
                        "valueCodeableConcept": {
                            "coding": [
                                {
                                    "system": "urn:oid:1.2.840.114350.1.13.0.1.7.10.698084.130.657370.19999000",
                                    "code": "male",
                                    "display": "male"
                                }
                            ]
                        },
                        "url": "http://open.epic.com/FHIR/StructureDefinition/extension/legal-sex"
                    },
                    {
                        "valueCodeableConcept": {
                            "coding": [
                                {
                                    "system": "urn:oid:1.2.840.114350.1.13.0.1.7.10.698084.130.657370.19999000",
                                    "code": "male",
                                    "display": "male"
                                }
                            ]
                        },
                        "url": "http://open.epic.com/FHIR/StructureDefinition/extension/sex-for-clinical-use"
                    },
                    {
                        "valueCode": "M",
                        "url": "http://hl7.org/fhir/us/core/StructureDefinition/us-core-birthsex"
                    }
                ],
                "identifier": [
                    {
                        "use": "usual",
                        "system": "urn:oid:2.16.840.1.113883.4.1",
                        "value": "164-39-1367"
                    },
                    {
                        "use": "usual",
                        "type": {
                            "text": "CEID"
                        },
                        "system": "urn:epic:apporchard.curprod",
                        "value": "AO14GN259WWZ26W"
                    },
                    {
                        "use": "usual",
                        "type": {
                            "text": "EPIC"
                        },
                        "system": "urn:oid:1.2.840.114350.1.1",
                        "value": "E3274"
                    },
                    {
                        "use": "usual",
                        "type": {
                            "text": "EXTERNAL"
                        },
                        "system": "urn:oid:1.2.840.114350.1.13.0.1.7.2.698084",
                        "value": "Z5004"
                    },
                    {
                        "use": "usual",
                        "type": {
                            "text": "FHIR"
                        },
                        "system": "http://open.epic.com/FHIR/StructureDefinition/patient-dstu2-fhir-id",
                        "value": "TFrQjQ.fQavyyDQvDV5bOWMOAH69W1uRee.F5P1NqOBIB"
                    },
                    {
                        "use": "usual",
                        "type": {
                            "text": "FHIR STU3"
                        },
                        "system": "http://open.epic.com/FHIR/StructureDefinition/patient-fhir-id",
                        "value": "eD9Lyzs-ab83UnHh.C9ZKDg3"
                    },
                    {
                        "use": "usual",
                        "type": {
                            "text": "INTERNAL"
                        },
                        "system": "urn:oid:1.2.840.114350.1.13.0.1.7.2.698084",
                        "value": "     Z5004"
                    },
                    {
                        "use": "usual",
                        "type": {
                            "text": "MRN"
                        },
                        "system": "urn:oid:1.2.840.114350.1.13.0.1.7.5.737384.14",
                        "value": "203024"
                    },
                    {
                        "use": "usual",
                        "type": {
                            "text": "MYCHARTLOGIN"
                        },
                        "system": "urn:oid:1.2.840.114350.1.13.0.1.7.3.878082.110",
                        "value": "ORDERSBEN"
                    },
                    {
                        "use": "usual",
                        "type": {
                            "text": "WPRINTERNAL"
                        },
                        "system": "urn:oid:1.2.840.114350.1.13.0.1.7.2.878082",
                        "value": "494"
                    }
                ],
                "active": true,
                "name": [
                    {
                        "use": "official",
                        "text": "Ben Orders",
                        "family": "Orders",
                        "given": [
                            "Ben"
                        ]
                    },
                    {
                        "use": "usual",
                        "text": "Ben Orders",
                        "family": "Orders",
                        "given": [
                            "Ben"
                        ]
                    }
                ],
                "telecom": [
                    {
                        "system": "phone",
                        "value": "608-213-5806",
                        "use": "home"
                    },
                    {
                        "system": "phone",
                        "value": "608-272-5000",
                        "use": "work"
                    }
                ],
                "gender": "male",
                "birthDate": "1954-09-25",
                "deceasedBoolean": false,
                "address": [
                    {
                        "use": "home",
                        "line": [
                            "134 Elm Street"
                        ],
                        "city": "Madison",
                        "state": "WI",
                        "postalCode": "53706",
                        "country": "US"
                    }
                ],
                "contact": [
                    {
                        "relationship": [
                            {
                                "coding": [
                                    {
                                        "system": "http://terminology.hl7.org/CodeSystem/v2-0131",
                                        "code": "C",
                                        "display": "Emergency Contact"
                                    },
                                    {
                                        "system": "http://terminology.hl7.org/CodeSystem/v2-0131",
                                        "code": "N",
                                        "display": "Next-of-Kin"
                                    },
                                    {
                                        "system": "urn:oid:1.2.840.114350.1.13.0.1.7.4.827665.1000",
                                        "code": "14",
                                        "display": "Sister"
                                    }
                                ],
                                "text": "Sister"
                            }
                        ],
                        "name": {
                            "use": "usual",
                            "text": "Sally Tonga"
                        },
                        "telecom": [
                            {
                                "system": "phone",
                                "value": "608-921-8342",
                                "use": "home"
                            }
                        ]
                    },
                    {
                        "relationship": [
                            {
                                "coding": [
                                    {
                                        "system": "http://terminology.hl7.org/CodeSystem/v2-0131",
                                        "code": "E",
                                        "display": "Employer"
                                    }
                                ]
                            }
                        ],
                        "organization": {
                            "display": "Ehs Generic Employer"
                        }
                    }
                ],
                "managingOrganization": {
                    "reference": "Organization/enRyWnSP963FYDpoks4NHOA3",
                    "display": "Epic Hospital System"
                }
            },
            "search": {
                "mode": "include"
            }
        },
        {
            "link": [
                {
                    "relation": "self",
                    "url": "https://appmarket.epic.com/interconnect-amcurprd-oauth/api/FHIR/R4/Encounter/eIeiWM9J.ex7-.U2cpY-SbQ3"
                }
            ],
            "fullUrl": "https://appmarket.epic.com/interconnect-amcurprd-oauth/api/FHIR/R4/Encounter/eIeiWM9J.ex7-.U2cpY-SbQ3",
            "resource": {
                "resourceType": "Encounter",
                "id": "eIeiWM9J.ex7-.U2cpY-SbQ3",
                "identifier": [
                    {
                        "use": "usual",
                        "system": "urn:oid:1.2.840.114350.1.13.0.1.7.3.698084.8",
                        "value": "8138"
                    }
                ],
                "status": "finished",
                "class": {
                    "system": "urn:oid:1.2.840.114350.1.72.1.7.7.10.696784.13260",
                    "code": "13",
                    "display": "Support OP Encounter"
                },
                "type": [
                    {
                        "coding": [
                            {
                                "system": "urn:oid:1.2.840.114350.1.13.0.1.7.10.698084.30",
                                "code": "70",
                                "display": "Telephone"
                            }
                        ],
                        "text": "Telephone"
                    }
                ],
                "subject": {
                    "reference": "Patient/eD9Lyzs-ab83UnHh.C9ZKDg3",
                    "display": "Orders, Ben"
                },
                "period": {
                    "start": "2013-01-11",
                    "end": "2013-01-11"
                },
                "reasonCode": [
                    {
                        "coding": [
                            {
                                "system": "urn:oid:1.2.840.114350.1.13.0.1.7.2.728286",
                                "code": "95",
                                "display": "Results"
                            }
                        ],
                        "text": "Results"
                    }
                ],
                "location": [
                    {
                        "location": {
                            "reference": "Location/e4W4rmGe9QzuGm2Dy4NBqVc0KDe6yGld6HW95UuN-Qd03",
                            "display": "EMC Family Medicine"
                        }
                    }
                ]
            },
            "search": {
                "mode": "include"
            }
        },
        {
            "link": [
                {
                    "relation": "self",
                    "url": "https://appmarket.epic.com/interconnect-amcurprd-oauth/api/FHIR/R4/Medication/eM1UcjWxYEMYw1RZILYqOgwc-H0o2x8gtcrO-w5C7qL-HP5JdnYtXCA8Zs-6hjREi3"
                }
            ],
            "fullUrl": "https://appmarket.epic.com/interconnect-amcurprd-oauth/api/FHIR/R4/Medication/eM1UcjWxYEMYw1RZILYqOgwc-H0o2x8gtcrO-w5C7qL-HP5JdnYtXCA8Zs-6hjREi3",
            "resource": {
                "resourceType": "Medication",
                "id": "eM1UcjWxYEMYw1RZILYqOgwc-H0o2x8gtcrO-w5C7qL-HP5JdnYtXCA8Zs-6hjREi3",
                "code": {
                    "coding": [
                        {
                            "system": "urn:oid:2.16.840.1.113883.6.253",
                            "code": "12000"
                        },
                        {
                            "system": "urn:oid:2.16.840.1.113883.6.68",
                            "code": "28100010100315"
                        },
                        {
                            "system": "urn:oid:2.16.840.1.113883.6.162",
                            "code": "00936"
                        },
                        {
                            "system": "http://www.nlm.nih.gov/research/umls/rxnorm",
                            "code": "10582"
                        },
                        {
                            "system": "http://www.nlm.nih.gov/research/umls/rxnorm",
                            "code": "40144"
                        },
                        {
                            "system": "http://www.nlm.nih.gov/research/umls/rxnorm",
                            "code": "966222"
                        },
                        {
                            "system": "http://www.nlm.nih.gov/research/umls/rxnorm",
                            "code": "1372638"
                        }
                    ],
                    "text": "levothyroxine (SYNTHROID, LEVOTHROID) tablet"
                },
                "form": {
                    "coding": [
                        {
                            "system": "urn:oid:1.2.840.114350.1.13.0.1.7.4.698288.310",
                            "code": "TABS",
                            "display": "tablet"
                        }
                    ],
                    "text": "tablet"
                },
                "ingredient": [
                    {
                        "itemCodeableConcept": {
                            "coding": [
                                {
                                    "system": "urn:oid:2.16.840.1.113883.6.253",
                                    "code": "12000"
                                },
                                {
                                    "system": "urn:oid:2.16.840.1.113883.6.68",
                                    "code": "28100010100315"
                                },
                                {
                                    "system": "urn:oid:2.16.840.1.113883.6.162",
                                    "code": "00936"
                                },
                                {
                                    "system": "http://www.nlm.nih.gov/research/umls/rxnorm",
                                    "code": "10582"
                                },
                                {
                                    "system": "http://www.nlm.nih.gov/research/umls/rxnorm",
                                    "code": "40144"
                                },
                                {
                                    "system": "http://www.nlm.nih.gov/research/umls/rxnorm",
                                    "code": "966222"
                                },
                                {
                                    "system": "http://www.nlm.nih.gov/research/umls/rxnorm",
                                    "code": "1372638"
                                }
                            ],
                            "text": "levothyroxine (SYNTHROID, LEVOTHROID) tablet"
                        },
                        "strength": {
                            "numerator": {
                                "value": 75,
                                "unit": "MCG",
                                "system": "http://unitsofmeasure.org",
                                "code": "ug"
                            },
                            "denominator": {
                                "value": 75,
                                "unit": "MCG",
                                "system": "http://unitsofmeasure.org",
                                "code": "ug"
                            }
                        }
                    }
                ]
            },
            "search": {
                "mode": "include"
            }
        },
        {
            "link": [
                {
                    "relation": "self",
                    "url": "https://appmarket.epic.com/interconnect-amcurprd-oauth/api/FHIR/R4/Encounter/eNU42gf48Me.65ekQCL1LVw3"
                }
            ],
            "fullUrl": "https://appmarket.epic.com/interconnect-amcurprd-oauth/api/FHIR/R4/Encounter/eNU42gf48Me.65ekQCL1LVw3",
            "resource": {
                "resourceType": "Encounter",
                "id": "eNU42gf48Me.65ekQCL1LVw3",
                "identifier": [
                    {
                        "use": "usual",
                        "system": "urn:oid:1.2.840.114350.1.13.0.1.7.3.698084.8",
                        "value": "8140"
                    }
                ],
                "status": "finished",
                "class": {
                    "system": "urn:oid:1.2.840.114350.1.72.1.7.7.10.696784.13260",
                    "code": "13",
                    "display": "Support OP Encounter"
                },
                "type": [
                    {
                        "coding": [
                            {
                                "system": "urn:oid:1.2.840.114350.1.13.0.1.7.10.698084.30",
                                "code": "101",
                                "display": "Office Visit"
                            }
                        ],
                        "text": "Office Visit"
                    }
                ],
                "subject": {
                    "reference": "Patient/eD9Lyzs-ab83UnHh.C9ZKDg3",
                    "display": "Orders, Ben"
                },
                "participant": [
                    {
                        "type": [
                            {
                                "text": "losAuthorizingPhysician"
                            }
                        ],
                        "individual": {
                            "reference": "Practitioner/eM5CWtq15N0WJeuCet5bJlQ3",
                            "type": "Practitioner",
                            "display": "Physician Family Medicine, MD"
                        }
                    }
                ],
                "period": {
                    "start": "2012-11-05",
                    "end": "2012-11-05"
                },
                "reasonCode": [
                    {
                        "coding": [
                            {
                                "system": "urn:oid:1.2.840.114350.1.13.0.1.7.2.728286",
                                "code": "160302",
                                "display": "Hypertension"
                            }
                        ],
                        "text": "Hypertension"
                    },
                    {
                        "coding": [
                            {
                                "system": "urn:oid:1.2.840.114350.1.13.0.1.7.2.728286",
                                "code": "72",
                                "display": "Nicotine Dependence"
                            }
                        ],
                        "text": "Nicotine Dependence"
                    }
                ],
                "location": [
                    {
                        "location": {
                            "reference": "Location/e4W4rmGe9QzuGm2Dy4NBqVc0KDe6yGld6HW95UuN-Qd03",
                            "display": "EMC Family Medicine"
                        }
                    }
                ]
            },
            "search": {
                "mode": "include"
            }
        },
        {
            "link": [
                {
                    "relation": "self",
                    "url": "https://appmarket.epic.com/interconnect-amcurprd-oauth/api/FHIR/R4/Encounter/eSI1M.mxEGEfgn2v5ATr9OQ3"
                }
            ],
            "fullUrl": "https://appmarket.epic.com/interconnect-amcurprd-oauth/api/FHIR/R4/Encounter/eSI1M.mxEGEfgn2v5ATr9OQ3",
            "resource": {
                "resourceType": "Encounter",
                "id": "eSI1M.mxEGEfgn2v5ATr9OQ3",
                "identifier": [
                    {
                        "use": "usual",
                        "system": "urn:oid:1.2.840.114350.1.13.0.1.7.3.698084.8",
                        "value": "8139"
                    }
                ],
                "status": "finished",
                "class": {
                    "system": "urn:oid:1.2.840.114350.1.72.1.7.7.10.696784.13260",
                    "code": "13",
                    "display": "Support OP Encounter"
                },
                "type": [
                    {
                        "coding": [
                            {
                                "system": "urn:oid:1.2.840.114350.1.13.0.1.7.10.698084.30",
                                "code": "101",
                                "display": "Office Visit"
                            }
                        ],
                        "text": "Office Visit"
                    }
                ],
                "subject": {
                    "reference": "Patient/eD9Lyzs-ab83UnHh.C9ZKDg3",
                    "display": "Orders, Ben"
                },
                "participant": [
                    {
                        "type": [
                            {
                                "text": "losAuthorizingPhysician"
                            }
                        ],
                        "individual": {
                            "reference": "Practitioner/eM5CWtq15N0WJeuCet5bJlQ3",
                            "type": "Practitioner",
                            "display": "Physician Family Medicine, MD"
                        }
                    }
                ],
                "period": {
                    "start": "2013-01-09",
                    "end": "2013-01-09"
                },
                "reasonCode": [
                    {
                        "coding": [
                            {
                                "system": "urn:oid:1.2.840.114350.1.13.0.1.7.2.728286",
                                "code": "160302",
                                "display": "Hypertension"
                            }
                        ],
                        "text": "Hypertension"
                    },
                    {
                        "coding": [
                            {
                                "system": "urn:oid:1.2.840.114350.1.13.0.1.7.2.728286",
                                "code": "110",
                                "display": "Thyroid Problem"
                            }
                        ],
                        "text": "Thyroid Problem"
                    }
                ],
                "location": [
                    {
                        "location": {
                            "reference": "Location/e4W4rmGe9QzuGm2Dy4NBqVc0KDe6yGld6HW95UuN-Qd03",
                            "display": "EMC Family Medicine"
                        }
                    }
                ]
            },
            "search": {
                "mode": "include"
            }
        },
        {
            "link": [
                {
                    "relation": "self",
                    "url": "https://appmarket.epic.com/interconnect-amcurprd-oauth/api/FHIR/R4/Medication/eSXWCxLKQS56lH9uth9o5wcMf-xczS.EBxCBzTywKzwbJzf5.iVxtqD.EKxF1pMx33"
                }
            ],
            "fullUrl": "https://appmarket.epic.com/interconnect-amcurprd-oauth/api/FHIR/R4/Medication/eSXWCxLKQS56lH9uth9o5wcMf-xczS.EBxCBzTywKzwbJzf5.iVxtqD.EKxF1pMx33",
            "resource": {
                "resourceType": "Medication",
                "id": "eSXWCxLKQS56lH9uth9o5wcMf-xczS.EBxCBzTywKzwbJzf5.iVxtqD.EKxF1pMx33",
                "code": {
                    "coding": [
                        {
                            "system": "urn:oid:2.16.840.1.113883.6.253",
                            "code": "64916"
                        },
                        {
                            "system": "urn:oid:2.16.840.1.113883.6.68",
                            "code": "62100005008540"
                        },
                        {
                            "system": "urn:oid:2.16.840.1.113883.6.162",
                            "code": "07278"
                        },
                        {
                            "system": "http://www.nlm.nih.gov/research/umls/rxnorm",
                            "code": "7407"
                        },
                        {
                            "system": "http://www.nlm.nih.gov/research/umls/rxnorm",
                            "code": "198030"
                        }
                    ],
                    "text": "nicotine (NICODERM CQ) patch 21 mg/24 hr"
                },
                "form": {
                    "coding": [
                        {
                            "system": "urn:oid:1.2.840.114350.1.13.0.1.7.4.698288.310",
                            "code": "PT24",
                            "display": "patch 24 hour"
                        }
                    ],
                    "text": "patch 24 hour"
                },
                "ingredient": [
                    {
                        "itemCodeableConcept": {
                            "coding": [
                                {
                                    "system": "urn:oid:2.16.840.1.113883.6.253",
                                    "code": "64916"
                                },
                                {
                                    "system": "urn:oid:2.16.840.1.113883.6.68",
                                    "code": "62100005008540"
                                },
                                {
                                    "system": "urn:oid:2.16.840.1.113883.6.162",
                                    "code": "07278"
                                },
                                {
                                    "system": "http://www.nlm.nih.gov/research/umls/rxnorm",
                                    "code": "7407"
                                },
                                {
                                    "system": "http://www.nlm.nih.gov/research/umls/rxnorm",
                                    "code": "198030"
                                }
                            ],
                            "text": "nicotine (NICODERM CQ) patch 21 mg/24 hr"
                        },
                        "strength": {
                            "numerator": {
                                "value": 21,
                                "unit": "MG/24HR"
                            },
                            "denominator": {
                                "value": 21,
                                "unit": "MG/24HR"
                            }
                        }
                    }
                ]
            },
            "search": {
                "mode": "include"
            }
        },
        {
            "link": [
                {
                    "relation": "self",
                    "url": "https://appmarket.epic.com/interconnect-amcurprd-oauth/api/FHIR/R4/Medication/ebYiUvEmAflK.4LtZVebjlhqmmiqagj8ytEqcxUZC9Vhp0oX0f5n17-YY-qX4047j3"
                }
            ],
            "fullUrl": "https://appmarket.epic.com/interconnect-amcurprd-oauth/api/FHIR/R4/Medication/ebYiUvEmAflK.4LtZVebjlhqmmiqagj8ytEqcxUZC9Vhp0oX0f5n17-YY-qX4047j3",
            "resource": {
                "resourceType": "Medication",
                "id": "ebYiUvEmAflK.4LtZVebjlhqmmiqagj8ytEqcxUZC9Vhp0oX0f5n17-YY-qX4047j3",
                "code": {
                    "coding": [
                        {
                            "system": "urn:oid:2.16.840.1.113883.6.253",
                            "code": "24358"
                        },
                        {
                            "system": "urn:oid:2.16.840.1.113883.6.68",
                            "code": "65991002050315"
                        },
                        {
                            "system": "urn:oid:2.16.840.1.113883.6.162",
                            "code": "03639"
                        },
                        {
                            "system": "http://www.nlm.nih.gov/research/umls/rxnorm",
                            "code": "161"
                        },
                        {
                            "system": "http://www.nlm.nih.gov/research/umls/rxnorm",
                            "code": "2670"
                        },
                        {
                            "system": "http://www.nlm.nih.gov/research/umls/rxnorm",
                            "code": "817579"
                        },
                        {
                            "system": "http://www.nlm.nih.gov/research/umls/rxnorm",
                            "code": "993781"
                        }
                    ],
                    "text": "ACETAMINOPHEN-CODEINE 300-30 MG PO TABS"
                },
                "form": {
                    "coding": [
                        {
                            "system": "urn:oid:1.2.840.114350.1.13.0.1.7.4.698288.310",
                            "code": "TABS",
                            "display": "tablet"
                        }
                    ],
                    "text": "tablet"
                },
                "ingredient": [
                    {
                        "itemCodeableConcept": {
                            "coding": [
                                {
                                    "system": "urn:oid:2.16.840.1.113883.6.253",
                                    "code": "24358"
                                },
                                {
                                    "system": "urn:oid:2.16.840.1.113883.6.68",
                                    "code": "65991002050315"
                                },
                                {
                                    "system": "urn:oid:2.16.840.1.113883.6.162",
                                    "code": "03639"
                                },
                                {
                                    "system": "http://www.nlm.nih.gov/research/umls/rxnorm",
                                    "code": "161"
                                },
                                {
                                    "system": "http://www.nlm.nih.gov/research/umls/rxnorm",
                                    "code": "2670"
                                },
                                {
                                    "system": "http://www.nlm.nih.gov/research/umls/rxnorm",
                                    "code": "817579"
                                },
                                {
                                    "system": "http://www.nlm.nih.gov/research/umls/rxnorm",
                                    "code": "993781"
                                }
                            ],
                            "text": "ACETAMINOPHEN-CODEINE 300-30 MG PO TABS"
                        }
                    }
                ]
            },
            "search": {
                "mode": "include"
            }
        },
        {
            "link": [
                {
                    "relation": "self",
                    "url": "https://appmarket.epic.com/interconnect-amcurprd-oauth/api/FHIR/R4/Medication/ec2EdIz35pNyygTeozpkhwza23XacFpPMwjc6k6FsGXM5MBgHCwg3Nb46gy-K0rxW3"
                }
            ],
            "fullUrl": "https://appmarket.epic.com/interconnect-amcurprd-oauth/api/FHIR/R4/Medication/ec2EdIz35pNyygTeozpkhwza23XacFpPMwjc6k6FsGXM5MBgHCwg3Nb46gy-K0rxW3",
            "resource": {
                "resourceType": "Medication",
                "id": "ec2EdIz35pNyygTeozpkhwza23XacFpPMwjc6k6FsGXM5MBgHCwg3Nb46gy-K0rxW3",
                "code": {
                    "coding": [
                        {
                            "system": "urn:oid:2.16.840.1.113883.6.253",
                            "code": "64913"
                        },
                        {
                            "system": "urn:oid:2.16.840.1.113883.6.68",
                            "code": "62100005008520"
                        },
                        {
                            "system": "urn:oid:2.16.840.1.113883.6.162",
                            "code": "07276"
                        },
                        {
                            "system": "http://www.nlm.nih.gov/research/umls/rxnorm",
                            "code": "7407"
                        },
                        {
                            "system": "http://www.nlm.nih.gov/research/umls/rxnorm",
                            "code": "198031"
                        }
                    ],
                    "text": "nicotine (NICODERM CQ) patch  7 mg/24 hr"
                },
                "form": {
                    "coding": [
                        {
                            "system": "urn:oid:1.2.840.114350.1.13.0.1.7.4.698288.310",
                            "code": "PT24",
                            "display": "patch 24 hour"
                        }
                    ],
                    "text": "patch 24 hour"
                },
                "ingredient": [
                    {
                        "itemCodeableConcept": {
                            "coding": [
                                {
                                    "system": "urn:oid:2.16.840.1.113883.6.253",
                                    "code": "64913"
                                },
                                {
                                    "system": "urn:oid:2.16.840.1.113883.6.68",
                                    "code": "62100005008520"
                                },
                                {
                                    "system": "urn:oid:2.16.840.1.113883.6.162",
                                    "code": "07276"
                                },
                                {
                                    "system": "http://www.nlm.nih.gov/research/umls/rxnorm",
                                    "code": "7407"
                                },
                                {
                                    "system": "http://www.nlm.nih.gov/research/umls/rxnorm",
                                    "code": "198031"
                                }
                            ],
                            "text": "nicotine (NICODERM CQ) patch  7 mg/24 hr"
                        },
                        "strength": {
                            "numerator": {
                                "value": 7,
                                "unit": "MG/24HR"
                            },
                            "denominator": {
                                "value": 7,
                                "unit": "MG/24HR"
                            }
                        }
                    }
                ]
            },
            "search": {
                "mode": "include"
            }
        },
        {
            "link": [
                {
                    "relation": "self",
                    "url": "https://appmarket.epic.com/interconnect-amcurprd-oauth/api/FHIR/R4/Encounter/egOQqS3YpA8ufwuGaYWwYeQ3"
                }
            ],
            "fullUrl": "https://appmarket.epic.com/interconnect-amcurprd-oauth/api/FHIR/R4/Encounter/egOQqS3YpA8ufwuGaYWwYeQ3",
            "resource": {
                "resourceType": "Encounter",
                "id": "egOQqS3YpA8ufwuGaYWwYeQ3",
                "identifier": [
                    {
                        "use": "usual",
                        "system": "urn:oid:1.2.840.114350.1.13.0.1.7.3.698084.8",
                        "value": "8136"
                    }
                ],
                "status": "finished",
                "class": {
                    "system": "urn:oid:1.2.840.114350.1.72.1.7.7.10.696784.13260",
                    "code": "13",
                    "display": "Support OP Encounter"
                },
                "type": [
                    {
                        "coding": [
                            {
                                "system": "urn:oid:1.2.840.114350.1.13.0.1.7.10.698084.30",
                                "code": "101",
                                "display": "Office Visit"
                            }
                        ],
                        "text": "Office Visit"
                    }
                ],
                "subject": {
                    "reference": "Patient/eD9Lyzs-ab83UnHh.C9ZKDg3",
                    "display": "Orders, Ben"
                },
                "participant": [
                    {
                        "type": [
                            {
                                "text": "losAuthorizingPhysician"
                            }
                        ],
                        "individual": {
                            "reference": "Practitioner/eM5CWtq15N0WJeuCet5bJlQ3",
                            "type": "Practitioner",
                            "display": "Physician Family Medicine, MD"
                        }
                    }
                ],
                "period": {
                    "start": "2013-04-15",
                    "end": "2013-04-15"
                },
                "reasonCode": [
                    {
                        "coding": [
                            {
                                "system": "urn:oid:1.2.840.114350.1.13.0.1.7.2.728286",
                                "code": "160340",
                                "display": "Knee Injury"
                            }
                        ],
                        "text": "Knee Injury"
                    }
                ],
                "location": [
                    {
                        "location": {
                            "reference": "Location/e4W4rmGe9QzuGm2Dy4NBqVc0KDe6yGld6HW95UuN-Qd03",
                            "display": "EMC Family Medicine"
                        }
                    }
                ]
            },
            "search": {
                "mode": "include"
            }
        },
        {
            "link": [
                {
                    "relation": "self",
                    "url": "https://appmarket.epic.com/interconnect-amcurprd-oauth/api/FHIR/R4/Medication/egt-gAMoTQGY0LWJ8P2qnc3bQfkK3-GTCm1UtXWdLMM-wR2Z1OQiujH30r1RFNONY3"
                }
            ],
            "fullUrl": "https://appmarket.epic.com/interconnect-amcurprd-oauth/api/FHIR/R4/Medication/egt-gAMoTQGY0LWJ8P2qnc3bQfkK3-GTCm1UtXWdLMM-wR2Z1OQiujH30r1RFNONY3",
            "resource": {
                "resourceType": "Medication",
                "id": "egt-gAMoTQGY0LWJ8P2qnc3bQfkK3-GTCm1UtXWdLMM-wR2Z1OQiujH30r1RFNONY3",
                "code": {
                    "coding": [
                        {
                            "system": "urn:oid:2.16.840.1.113883.6.253",
                            "code": "6670"
                        },
                        {
                            "system": "urn:oid:2.16.840.1.113883.6.68",
                            "code": "34000010100320"
                        },
                        {
                            "system": "urn:oid:2.16.840.1.113883.6.162",
                            "code": "01140"
                        },
                        {
                            "system": "http://www.nlm.nih.gov/research/umls/rxnorm",
                            "code": "3443"
                        },
                        {
                            "system": "http://www.nlm.nih.gov/research/umls/rxnorm",
                            "code": "203211"
                        },
                        {
                            "system": "http://www.nlm.nih.gov/research/umls/rxnorm",
                            "code": "831054"
                        }
                    ],
                    "text": "dilTIAZem (CARDIZEM) tablet"
                },
                "form": {
                    "coding": [
                        {
                            "system": "urn:oid:1.2.840.114350.1.13.0.1.7.4.698288.310",
                            "code": "TABS",
                            "display": "tablet"
                        }
                    ],
                    "text": "tablet"
                },
                "ingredient": [
                    {
                        "itemCodeableConcept": {
                            "coding": [
                                {
                                    "system": "urn:oid:2.16.840.1.113883.6.253",
                                    "code": "6670"
                                },
                                {
                                    "system": "urn:oid:2.16.840.1.113883.6.68",
                                    "code": "34000010100320"
                                },
                                {
                                    "system": "urn:oid:2.16.840.1.113883.6.162",
                                    "code": "01140"
                                },
                                {
                                    "system": "http://www.nlm.nih.gov/research/umls/rxnorm",
                                    "code": "3443"
                                },
                                {
                                    "system": "http://www.nlm.nih.gov/research/umls/rxnorm",
                                    "code": "203211"
                                },
                                {
                                    "system": "http://www.nlm.nih.gov/research/umls/rxnorm",
                                    "code": "831054"
                                }
                            ],
                            "text": "dilTIAZem (CARDIZEM) tablet"
                        },
                        "strength": {
                            "numerator": {
                                "value": 120,
                                "unit": "MG",
                                "system": "http://unitsofmeasure.org",
                                "code": "mg"
                            },
                            "denominator": {
                                "value": 120,
                                "unit": "MG",
                                "system": "http://unitsofmeasure.org",
                                "code": "mg"
                            }
                        }
                    }
                ]
            },
            "search": {
                "mode": "include"
            }
        },
        {
            "link": [
                {
                    "relation": "self",
                    "url": "https://appmarket.epic.com/interconnect-amcurprd-oauth/api/FHIR/R4/Medication/elDU0FxAVaBfoGItoj3nk0d8ZZMVgZLDXyPnKRnSQPzGgOWq-U5j6nZsjLUQHHUA73"
                }
            ],
            "fullUrl": "https://appmarket.epic.com/interconnect-amcurprd-oauth/api/FHIR/R4/Medication/elDU0FxAVaBfoGItoj3nk0d8ZZMVgZLDXyPnKRnSQPzGgOWq-U5j6nZsjLUQHHUA73",
            "resource": {
                "resourceType": "Medication",
                "id": "elDU0FxAVaBfoGItoj3nk0d8ZZMVgZLDXyPnKRnSQPzGgOWq-U5j6nZsjLUQHHUA73",
                "code": {
                    "coding": [
                        {
                            "system": "urn:oid:2.16.840.1.113883.6.253",
                            "code": "34366"
                        },
                        {
                            "system": "urn:oid:2.16.840.1.113883.6.68",
                            "code": "37990002300105"
                        },
                        {
                            "system": "urn:oid:2.16.840.1.113883.6.162",
                            "code": "11010"
                        },
                        {
                            "system": "http://www.nlm.nih.gov/research/umls/rxnorm",
                            "code": "5487"
                        },
                        {
                            "system": "http://www.nlm.nih.gov/research/umls/rxnorm",
                            "code": "10763"
                        },
                        {
                            "system": "http://www.nlm.nih.gov/research/umls/rxnorm",
                            "code": "198316"
                        },
                        {
                            "system": "http://www.nlm.nih.gov/research/umls/rxnorm",
                            "code": "258337"
                        }
                    ],
                    "text": "triamterene-hydroCHLOROthiazide (DYAZIDE) capsule 37.5-25 mg"
                },
                "form": {
                    "coding": [
                        {
                            "system": "urn:oid:1.2.840.114350.1.13.0.1.7.4.698288.310",
                            "code": "CAPS",
                            "display": "capsule"
                        }
                    ],
                    "text": "capsule"
                },
                "ingredient": [
                    {
                        "itemCodeableConcept": {
                            "coding": [
                                {
                                    "system": "urn:oid:2.16.840.1.113883.6.253",
                                    "code": "34366"
                                },
                                {
                                    "system": "urn:oid:2.16.840.1.113883.6.68",
                                    "code": "37990002300105"
                                },
                                {
                                    "system": "urn:oid:2.16.840.1.113883.6.162",
                                    "code": "11010"
                                },
                                {
                                    "system": "http://www.nlm.nih.gov/research/umls/rxnorm",
                                    "code": "5487"
                                },
                                {
                                    "system": "http://www.nlm.nih.gov/research/umls/rxnorm",
                                    "code": "10763"
                                },
                                {
                                    "system": "http://www.nlm.nih.gov/research/umls/rxnorm",
                                    "code": "198316"
                                },
                                {
                                    "system": "http://www.nlm.nih.gov/research/umls/rxnorm",
                                    "code": "258337"
                                }
                            ],
                            "text": "triamterene-hydroCHLOROthiazide (DYAZIDE) capsule 37.5-25 mg"
                        }
                    }
                ]
            },
            "search": {
                "mode": "include"
            }
        },
        {
            "link": [
                {
                    "relation": "self",
                    "url": "https://appmarket.epic.com/interconnect-amcurprd-oauth/api/FHIR/R4/Encounter/elgek-MHQqKU8btiuqT6hJQ3"
                }
            ],
            "fullUrl": "https://appmarket.epic.com/interconnect-amcurprd-oauth/api/FHIR/R4/Encounter/elgek-MHQqKU8btiuqT6hJQ3",
            "resource": {
                "resourceType": "Encounter",
                "id": "elgek-MHQqKU8btiuqT6hJQ3",
                "identifier": [
                    {
                        "use": "usual",
                        "system": "urn:oid:1.2.840.114350.1.13.0.1.7.3.698084.8",
                        "value": "8142"
                    }
                ],
                "status": "finished",
                "class": {
                    "system": "urn:oid:1.2.840.114350.1.72.1.7.7.10.696784.13260",
                    "code": "13",
                    "display": "Support OP Encounter"
                },
                "type": [
                    {
                        "coding": [
                            {
                                "system": "urn:oid:1.2.840.114350.1.13.0.1.7.10.698084.30",
                                "code": "101",
                                "display": "Office Visit"
                            }
                        ],
                        "text": "Office Visit"
                    }
                ],
                "subject": {
                    "reference": "Patient/eD9Lyzs-ab83UnHh.C9ZKDg3",
                    "display": "Orders, Ben"
                },
                "participant": [
                    {
                        "type": [
                            {
                                "text": "losAuthorizingPhysician"
                            }
                        ],
                        "individual": {
                            "reference": "Practitioner/eM5CWtq15N0WJeuCet5bJlQ3",
                            "type": "Practitioner",
                            "display": "Physician Family Medicine, MD"
                        }
                    }
                ],
                "period": {
                    "start": "2012-09-29",
                    "end": "2012-09-29"
                },
                "reasonCode": [
                    {
                        "coding": [
                            {
                                "system": "urn:oid:1.2.840.114350.1.13.0.1.7.2.728286",
                                "code": "95",
                                "display": "Results"
                            }
                        ],
                        "text": "Results"
                    }
                ],
                "location": [
                    {
                        "location": {
                            "reference": "Location/e4W4rmGe9QzuGm2Dy4NBqVc0KDe6yGld6HW95UuN-Qd03",
                            "display": "EMC Family Medicine"
                        }
                    }
                ]
            },
            "search": {
                "mode": "include"
            }
        }
    ]
}