{
    "resourceType": "Bundle",
    "type": "searchset",
    "total": 1,
    "link": [
        {
            "relation": "self",
            "url": "https://appmarket.epic.com/interconnect-amcurprd-oauth/api/FHIR/R4/MedicationRequest?_include=MedicationRequest:medicationReference&_include=MedicationRequest:encounter&_include=MedicationRequest:subject&_format=json&patient=egkTxa-af5bi-4C1ojAwPqg3"
        }
    ],
    "entry": [
        {
            "link": [
                {
                    "relation": "self",
                    "url": "https://appmarket.epic.com/interconnect-amcurprd-oauth/api/FHIR/R4/MedicationRequest/e-ZHqK3NdRMXihCcwLUGcEYEkBopZSgEkonfBUPeh4eI3"
                }
            ],
            "fullUrl": "https://appmarket.epic.com/interconnect-amcurprd-oauth/api/FHIR/R4/MedicationRequest/e-ZHqK3NdRMXihCcwLUGcEYEkBopZSgEkonfBUPeh4eI3",
            "resource": {
                "resourceType": "MedicationRequest",
                "id": "e-ZHqK3NdRMXihCcwLUGcEYEkBopZSgEkonfBUPeh4eI3",
                "identifier": [
                    {
                        "use": "usual",
                        "system": "urn:oid:1.2.840.114350.1.13.0.1.7.2.798268",
                        "value": "1003902"
                    }
                ],
                "status": "active",
                "intent": "plan",
                "category": [
                    {
                        "coding": [
                            {
                                "system": "http://terminology.hl7.org/CodeSystem/medicationrequest-category",
                                "code": "community",
                                "display": "Community"
                            }
                        ],
                        "text": "Community"
                    }
                ],
                "reportedBoolean": true,
                "medicationReference": {
                    "reference": "Medication/eZbMLH1WFETgP8m1sLq23tiAWc08HWBDNsj-.lHsUEolYkzYPyoQ6NK7ntkk.3PHl3",
                    "display": "acetaminophen (TYLENOL) solution 100 mg/mL"
                },
                "subject": {
                    "reference": "Patient/egkTxa-af5bi-4C1ojAwPqg3",
                    "display": "Xerus, Xena OpTime"
                },
                "encounter": {
                    "reference": "Encounter/epz-hePTBIT4vqMdGhgNCdQ3",
                    "identifier": {
                        "use": "usual",
                        "system": "urn:oid:1.2.840.114350.1.13.0.1.7.3.698084.8",
                        "value": "26379"
                    },
                    "display": "Hospital Encounter"
                },
                "authoredOn": "2024-07-21T18:23:23Z",
                "requester": {
                    "extension": [
                        {
                            "valueCode": "unknown",
                            "url": "http://hl7.org/fhir/StructureDefinition/data-absent-reason"
                        }
                    ]
                },
                "recorder": {
                    "reference": "Practitioner/enHmcmrIOygs4mq-t6soebQ3",
                    "type": "Practitioner",
                    "display": "Anesthesiologist Anesthesia, MD"
                },
                "courseOfTherapyType": {
                    "coding": [
                        {
                            "system": "http://terminology.hl7.org/CodeSystem/medicationrequest-course-of-therapy",
                            "code": "acute",
                            "display": "Short course (acute) therapy"
                        }
                    ],
                    "text": "Short course (acute) therapy"
                },
                "dosageInstruction": [
                    {
                        "text": "Take 10 mg/kg by mouth every 4 (four) hours if needed for fever., Historical Med",
                        "patientInstruction": "Take 10 mg/kg by mouth every 4 (four) hours if needed for fever.",
                        "timing": {
                            "repeat": {
                                "frequency": 1,
                                "period": 4,
                                "periodUnit": "h"
                            },
                            "code": {
                                "text": "Every 4 (four) hours as needed"
                            }
                        },
                        "asNeededBoolean": true,
                        "route": {
                            "coding": [
                                {
                                    "system": "http://snomed.info/sct",
                                    "code": "260548002",
                                    "display": "Oral (qualifier value)"
                                },
                                {
                                    "system": "urn:oid:1.2.840.114350.1.13.0.1.7.4.798268.7025",
                                    "code": "15",
                                    "display": "Oral"
                                }
                            ],
                            "text": "Oral"
                        },
                        "method": {
                            "coding": [
                                {
                                    "system": "http://snomed.info/sct",
                                    "code": "419652001",
                                    "display": "Take"
                                }
                            ],
                            "text": "Take"
                        },
                        "doseAndRate": [
                            {
                                "type": {
                                    "coding": [
                                        {
                                            "system": "http://epic.com/CodeSystem/dose-rate-type",
                                            "code": "ordered",
                                            "display": "ordered"
                                        }
                                    ],
                                    "text": "ordered"
                                },
                                "doseQuantity": {
                                    "value": 10,
                                    "unit": "mg/kg",
                                    "system": "http://unitsofmeasure.org",
                                    "code": "mg/kg"
                                }
                            }
                        ]
                    }
                ]
            },
            "search": {
                "mode": "match"
            }
        },
        {
            "link": [
                {
                    "relation": "self",
                    "url": "https://appmarket.epic.com/interconnect-amcurprd-oauth/api/FHIR/R4/Medication/eZbMLH1WFETgP8m1sLq23tiAWc08HWBDNsj-.lHsUEolYkzYPyoQ6NK7ntkk.3PHl3"
                }
            ],
            "fullUrl": "https://appmarket.epic.com/interconnect-amcurprd-oauth/api/FHIR/R4/Medication/eZbMLH1WFETgP8m1sLq23tiAWc08HWBDNsj-.lHsUEolYkzYPyoQ6NK7ntkk.3PHl3",
            "resource": {
                "resourceType": "Medication",
                "id": "eZbMLH1WFETgP8m1sLq23tiAWc08HWBDNsj-.lHsUEolYkzYPyoQ6NK7ntkk.3PHl3",
                "code": {
                    "coding": [
                        {
                            "system": "urn:oid:2.16.840.1.113883.6.253",
                            "code": "46640"
                        },
                        {
                            "system": "urn:oid:2.16.840.1.113883.6.68",
                            "code": "64200010002005"
                        },
                        {
                            "system": "urn:oid:2.16.840.1.113883.6.162",
                            "code": "03449"
                        },
                        {
                            "system": "http://www.nlm.nih.gov/research/umls/rxnorm",
                            "code": "161"
                        },
                        {
                            "system": "http://www.nlm.nih.gov/research/umls/rxnorm",
                            "code": "238159"
                        }
                    ],
                    "text": "acetaminophen (TYLENOL) solution 100 mg/mL"
                },
                "form": {
                    "coding": [
                        {
                            "system": "urn:oid:1.2.840.114350.1.13.0.1.7.4.698288.310",
                            "code": "SOLN",
                            "display": "solution"
                        }
                    ],
                    "text": "solution"
                },
                "ingredient": [
                    {
                        "itemCodeableConcept": {
                            "coding": [
                                {
                                    "system": "urn:oid:2.16.840.1.113883.6.253",
                                    "code": "46640"
                                },
                                {
                                    "system": "urn:oid:2.16.840.1.113883.6.68",
                                    "code": "64200010002005"
                                },
                                {
                                    "system": "urn:oid:2.16.840.1.113883.6.162",
                                    "code": "03449"
                                },
                                {
                                    "system": "http://www.nlm.nih.gov/research/umls/rxnorm",
                                    "code": "161"
                                },
                                {
                                    "system": "http://www.nlm.nih.gov/research/umls/rxnorm",
                                    "code": "238159"
                                }
                            ],
                            "text": "acetaminophen (TYLENOL) solution 100 mg/mL"
                        },
                        "strength": {
                            "numerator": {
                                "value": 100,
                                "unit": "MG/ML",
                                "system": "http://unitsofmeasure.org",
                                "code": "mg/mL"
                            },
                            "denominator": {
                                "value": 100,
                                "unit": "MG/ML",
                                "system": "http://unitsofmeasure.org",
                                "code": "mg/mL"
                            }
                        }
                    }
                ]
            },
            "search": {
                "mode": "include"
            }
        },
        {
            "link": [
                {
                    "relation": "self",
                    "url": "https://appmarket.epic.com/interconnect-amcurprd-oauth/api/FHIR/R4/Patient/egkTxa-af5bi-4C1ojAwPqg3"
                }
            ],
            "fullUrl": "https://appmarket.epic.com/interconnect-amcurprd-oauth/api/FHIR/R4/Patient/egkTxa-af5bi-4C1ojAwPqg3",
            "resource": {
                "resourceType": "Patient",
                "id": "egkTxa-af5bi-4C1ojAwPqg3",
                "extension": [
                    {
                        "extension": [
                            {
                                "valueCoding": {
                                    "system": "http://terminology.hl7.org/CodeSystem/v3-NullFlavor",
                                    "code": "UNK",
                                    "display": "Unknown"
                                },
                                "url": "ombCategory"
                            },
                            {
                                "valueString": "Unknown",
                                "url": "text"
                            }
                        ],
                        "url": "http://hl7.org/fhir/us/core/StructureDefinition/us-core-race"
                    },
                    {
                        "extension": [
                            {
                                "valueString": "Unknown",
                                "url": "text"
                            }
                        ],
                        "url": "http://hl7.org/fhir/us/core/StructureDefinition/us-core-ethnicity"
                    },
                    {
                        "valueCodeableConcept": {
                            "coding": [
                                {
                                    "system": "urn:oid:1.2.840.114350.1.13.0.1.7.10.698084.130.657370.19999000",
                                    "code": "female",
                                    "display": "female"
                                }
                            ]
                        },
                        "url": "http://open.epic.com/FHIR/StructureDefinition/extension/legal-sex"
                    },
                    {
                        "valueCodeableConcept": {
                            "coding": [
                                {
                                    "system": "urn:oid:1.2.840.114350.1.13.0.1.7.10.698084.130.657370.19999000",
                                    "code": "female",
                                    "display": "female"
                                }
                            ]
                        },
                        "url": "http://open.epic.com/FHIR/StructureDefinition/extension/sex-for-clinical-use"
                    },
                    {
                        "valueCode": "F",
                        "url": "http://hl7.org/fhir/us/core/StructureDefinition/us-core-birthsex"
                    }
                ],
                "identifier": [
                    {
                        "use": "usual",
                        "system": "urn:oid:2.16.840.1.113883.4.1",
                        "value": "769-58-7101"
                    },
                    {
                        "use": "usual",
                        "type": {
                            "text": "CEID"
                        },
                        "system": "urn:epic:apporchard.curprod",
                        "value": "AO1JG772GRSJ3NJ"
                    },
                    {
                        "use": "usual",
                        "type": {
                            "text": "EPIC"
                        },
                        "system": "urn:oid:1.2.840.114350.1.1",
                        "value": "E7377"
                    },
                    {
                        "use": "usual",
                        "type": {
                            "text": "EXTERNAL"
                        },
                        "system": "urn:oid:1.2.840.114350.1.13.0.1.7.2.698084",
                        "value": "Z6011"
                    },
                    {
                        "use": "usual",
                        "type": {
                            "text": "FHIR"
                        },
                        "system": "http://open.epic.com/FHIR/StructureDefinition/patient-dstu2-fhir-id",
                        "value": "T4xAhaweoxvV3fCoMi-EOw4PQvD4msPsa.lqTcB2oaZYB"
                    },
                    {
                        "use": "usual",
                        "type": {
                            "text": "FHIR STU3"
                        },
                        "system": "http://open.epic.com/FHIR/StructureDefinition/patient-fhir-id",
                        "value": "egkTxa-af5bi-4C1ojAwPqg3"
                    },
                    {
                        "use": "usual",
                        "type": {
                            "text": "INTERNAL"
                        },
                        "system": "urn:oid:1.2.840.114350.1.13.0.1.7.2.698084",
                        "value": "     Z6011"
                    },
                    {
                        "use": "usual",
                        "type": {
                            "text": "MRN"
                        },
                        "system": "urn:oid:1.2.840.114350.1.13.0.1.7.5.737384.14",
                        "value": "207023"
                    }
                ],
                "active": true,
                "name": [
                    {
                        "use": "official",
                        "text": "Xena OpTime Xerus",
                        "family": "Xerus",
                        "given": [
                            "Xena",
                            "OpTime"
                        ]
                    },
                    {
                        "use": "usual",
                        "text": "Xena OpTime Xerus",
                        "family": "Xerus",
                        "given": [
                            "Xena",
                            "OpTime"
                        ]
                    }
                ],
                "telecom": [
                    {
                        "system": "phone",
                        "value": "608-271-9000",
                        "use": "home"
                    }
                ],
                "gender": "female",
                "birthDate": "2021-11-16",
                "deceasedBoolean": false,
                "address": [
                    {
                        "use": "home",
                        "line": [
                            "1979 Milky Way"
                        ],
                        "city": "VERONA",
                        "district": "DANE",
                        "state": "WI",
                        "postalCode": "53593",
                        "country": "US"
                    }
                ],
                "maritalStatus": {
                    "text": "Single"
                },
                "managingOrganization": {
                    "reference": "Organization/enRyWnSP963FYDpoks4NHOA3",
                    "display": "Epic Hospital System"
                }
            },
            "search": {
                "mode": "include"
            }
        },
        {
            "link": [
                {
                    "relation": "self",
                    "url": "https://appmarket.epic.com/interconnect-amcurprd-oauth/api/FHIR/R4/Encounter/epz-hePTBIT4vqMdGhgNCdQ3"
                }
            ],
            "fullUrl": "https://appmarket.epic.com/interconnect-amcurprd-oauth/api/FHIR/R4/Encounter/epz-hePTBIT4vqMdGhgNCdQ3",
            "resource": {
                "resourceType": "Encounter",
                "id": "epz-hePTBIT4vqMdGhgNCdQ3",
                "identifier": [
                    {
                        "use": "usual",
                        "system": "urn:oid:1.2.840.114350.1.13.0.1.7.3.698084.8",
                        "value": "26379"
                    }
                ],
                "status": "in-progress",
                "class": {
                    "system": "urn:oid:1.2.840.114350.1.72.1.7.7.10.696784.13260",
                    "code": "3",
                    "display": "Admission"
                },
                "type": [
                    {
                        "coding": [
                            {
                                "system": "urn:oid:1.2.840.114350.1.13.0.1.7.10.698084.10110",
                                "code": "108",
                                "display": "Surgery Admit"
                            }
                        ],
                        "text": "Surgery Admit"
                    },
                    {
                        "coding": [
                            {
                                "system": "urn:oid:1.2.840.114350.1.13.0.1.7.10.698084.30",
                                "code": "3",
                                "display": "Hospital Encounter"
                            }
                        ],
                        "text": "Hospital Encounter"
                    },
                    {
                        "coding": [
                            {
                                "system": "urn:oid:1.2.840.114350.1.13.0.1.7.10.698084.18875",
                                "code": "3",
                                "display": "Elective"
                            }
                        ],
                        "text": "Elective"
                    }
                ],
                "serviceType": {
                    "coding": [
                        {
                            "system": "urn:oid:1.2.840.114350.1.13.0.1.7.10.698084.18886",
                            "code": "124",
                            "display": "General Surgery"
                        }
                    ],
                    "text": "General Surgery"
                },
                "subject": {
                    "reference": "Patient/egkTxa-af5bi-4C1ojAwPqg3",
                    "display": "Xerus, Xena OpTime"
                },
                "participant": [
                    {
                        "type": [
                            {
                                "coding": [
                                    {
                                        "system": "http://hl7.org/fhir/v3/ParticipationType",
                                        "code": "ADM",
                                        "display": "admitter"
                                    }
                                ],
                                "text": "admitter"
                            }
                        ],
                        "individual": {
                            "reference": "Practitioner/e4mnGt8AoLN8TrqZFnsrvmg3",
                            "type": "Practitioner",
                            "display": "Physician Two Pediatrics, MD"
                        }
                    },
                    {
                        "type": [
                            {
                                "coding": [
                                    {
                                        "system": "http://hl7.org/fhir/v3/ParticipationType",
                                        "code": "ATND",
                                        "display": "attender"
                                    }
                                ],
                                "text": "attender"
                            }
                        ],
                        "period": {
                            "start": "2024-07-21T17:00:00Z"
                        },
                        "individual": {
                            "reference": "Practitioner/eoScyX3bs1SY.2lMoHCGcVw3",
                            "type": "Practitioner",
                            "display": "Physician Pediatrics, MD"
                        }
                    },
                    {
                        "extension": [
                            {
                                "valueCodeableConcept": {
                                    "coding": [
                                        {
                                            "system": "urn:oid:1.2.840.114350.1.13.0.1.7.4.698084.18832",
                                            "code": "32",
                                            "display": "Pediatrics"
                                        }
                                    ],
                                    "text": "Pediatrics"
                                },
                                "url": "http://open.epic.com/FHIR/StructureDefinition/extension/specialty"
                            }
                        ],
                        "type": [
                            {
                                "coding": [
                                    {
                                        "system": "urn:oid:1.2.840.114350.1.13.0.1.7.10.698084.18869",
                                        "code": "Surgeon",
                                        "display": "Surgeon"
                                    }
                                ],
                                "text": "Surgeon"
                            }
                        ],
                        "period": {
                            "start": "2024-07-21T15:24:58Z"
                        },
                        "individual": {
                            "reference": "Practitioner/eoScyX3bs1SY.2lMoHCGcVw3",
                            "type": "Practitioner",
                            "display": "Physician Pediatrics, MD"
                        }
                    }
                ],
                "period": {
                    "start": "2024-07-21T17:00:00Z"
                },
                "account": [
                    {
                        "identifier": {
                            "system": "urn:oid:1.2.840.114350.1.13.0.1.7.2.726582",
                            "value": "2668"
                        },
                        "display": "XERUS,XENA OPTIME"
                    }
                ],
                "hospitalization": {
                    "extension": [
                        {
                            "valueDateTime": "2024-07-21T17:00:00Z",
                            "url": "http://open.epic.com/FHIR/StructureDefinition/extension/observation-datetime"
                        }
                    ],
                    "admitSource": {
                        "coding": [
                            {
                                "system": "urn:oid:1.2.840.114350.1.13.0.1.7.10.698084.10310",
                                "code": "26",
                                "display": "Born Outside this Hospital"
                            }
                        ],
                        "text": "Born Outside this Hospital"
                    }
                },
                "location": [
                    {
                        "location": {
                            "reference": "Location/eHeR2B2gdVSvTnVj1hBDiZYsgc-X0LxWezfOe.ofOWm03",
                            "display": "EPH Main Operating Room"
                        },
                        "period": {
                            "start": "2024-07-21T17:00:00Z"
                        }
                    },
                    {
                        "location": {
                            "reference": "Location/eO-3e71xq6A5Xp7leBMrw5X-8sAl6UHIF91p7maQKFdU3",
                            "display": "EMH Medical Surgical"
                        }
                    },
                    {
                        "location": {
                            "reference": "Location/eQSOrLdbVrMRc68KBcTBG4A3",
                            "display": "Epic Hospital System"
                        }
                    },
                    {
                        "location": {
                            "reference": "Location/ejDdlAckJBCtBGwXrxQKgUg3",
                            "display": "135"
                        },
                        "physicalType": {
                            "coding": [
                                {
                                    "system": "http://terminology.hl7.org/CodeSystem/location-physical-type",
                                    "code": "ro",
                                    "display": "Room"
                                }
                            ],
                            "text": "Room"
                        }
                    },
                    {
                        "location": {
                            "identifier": {
                                "system": "urn:oid:1.2.840.114350.1.13.0.1.7.2.666968",
                                "value": "650"
                            },
                            "display": "135-02"
                        },
                        "physicalType": {
                            "coding": [
                                {
                                    "system": "http://terminology.hl7.org/CodeSystem/location-physical-type",
                                    "code": "bd",
                                    "display": "Bed"
                                }
                            ],
                            "text": "Bed"
                        }
                    }
                ]
            },
            "search": {
                "mode": "include"
            }
        }
    ]
}