{
    "resourceType": "Bundle",
    "type": "searchset",
    "total": 10,
    "link": [
        {
            "relation": "self",
            "url": "https://appmarket.epic.com/interconnect-amcurprd-oauth/api/FHIR/R4/MedicationRequest?_include=MedicationRequest:medicationReference&_include=MedicationRequest:encounter&_include=MedicationRequest:subject&_format=json&patient=ewKXaSxwlpsa7WGwKzzT1lg3"
        }
    ],
    "entry": [
        {
            "link": [
                {
                    "relation": "self",
                    "url": "https://appmarket.epic.com/interconnect-amcurprd-oauth/api/FHIR/R4/MedicationRequest/eBk.QOF.Vn-r-x2FQgKSF0w3"
                }
            ],
            "fullUrl": "https://appmarket.epic.com/interconnect-amcurprd-oauth/api/FHIR/R4/MedicationRequest/eBk.QOF.Vn-r-x2FQgKSF0w3",
            "resource": {
                "resourceType": "MedicationRequest",
                "id": "eBk.QOF.Vn-r-x2FQgKSF0w3",
                "identifier": [
                    {
                        "use": "usual",
                        "system": "urn:oid:1.2.840.114350.1.13.0.1.7.2.798268",
                        "value": "998687"
                    }
                ],
                "status": "completed",
                "intent": "order",
                "category": [
                    {
                        "coding": [
                            {
                                "system": "http://terminology.hl7.org/CodeSystem/medicationrequest-category",
                                "code": "inpatient",
                                "display": "Inpatient"
                            }
                        ],
                        "text": "Inpatient"
                    }
                ],
                "medicationReference": {
                    "reference": "Medication/erPDTHR6K2WA2zNgYrjQmN8jurF95Dim-hPfNFwz2BqKAzFEYP65qK3THg8dSP2aS3",
                    "display": "ondansetron (ZOFRAN) 2 mg/mL injection"
                },
                "subject": {
                    "reference": "Patient/ewKXaSxwlpsa7WGwKzzT1lg3",
                    "display": "Zzipmaster, Charlie"
                },
                "encounter": {
                    "reference": "Encounter/eokZego-sZbeUrF.xTYkiKQ3",
                    "identifier": {
                        "use": "usual",
                        "system": "urn:oid:1.2.840.114350.1.13.0.1.7.3.698084.8",
                        "value": "25683"
                    },
                    "display": "Hospital Encounter"
                },
                "authoredOn": "2024-04-02T13:40:34Z",
                "requester": {
                    "reference": "Practitioner/e8bM9BibcJ25SLe6lJi5i9Q3",
                    "type": "Practitioner",
                    "display": "Attending Physician Emergency, MD"
                },
                "recorder": {
                    "reference": "Practitioner/e8bM9BibcJ25SLe6lJi5i9Q3",
                    "type": "Practitioner",
                    "display": "Attending Physician Emergency, MD"
                },
                "courseOfTherapyType": {
                    "coding": [
                        {
                            "system": "http://terminology.hl7.org/CodeSystem/medicationrequest-course-of-therapy",
                            "code": "acute",
                            "display": "Short course (acute) therapy"
                        }
                    ],
                    "text": "Short course (acute) therapy"
                },
                "dosageInstruction": [
                    {
                        "text": "4 mg, Intravenous, Once, On Wed 4/3/24 at 0755, For 1 dose",
                        "timing": {
                            "repeat": {
                                "boundsPeriod": {
                                    "start": "2024-04-03T12:51:00Z",
                                    "end": "2024-04-03T12:55:00Z"
                                },
                                "count": 1
                            },
                            "code": {
                                "text": "Once"
                            }
                        },
                        "asNeededBoolean": false,
                        "route": {
                            "coding": [
                                {
                                    "system": "http://snomed.info/sct",
                                    "code": "418114005",
                                    "display": "Intravenous central route (qualifier value)"
                                },
                                {
                                    "system": "urn:oid:1.2.840.114350.1.13.0.1.7.4.798268.7025",
                                    "code": "11",
                                    "display": "Intravenous"
                                }
                            ],
                            "text": "Intravenous"
                        },
                        "doseAndRate": [
                            {
                                "type": {
                                    "coding": [
                                        {
                                            "system": "http://epic.com/CodeSystem/dose-rate-type",
                                            "code": "calculated",
                                            "display": "calculated"
                                        }
                                    ],
                                    "text": "calculated"
                                },
                                "doseQuantity": {
                                    "value": 4,
                                    "unit": "mg",
                                    "system": "http://unitsofmeasure.org",
                                    "code": "mg"
                                }
                            },
                            {
                                "type": {
                                    "coding": [
                                        {
                                            "system": "http://epic.com/CodeSystem/dose-rate-type",
                                            "code": "admin-amount",
                                            "display": "admin-amount"
                                        }
                                    ],
                                    "text": "admin-amount"
                                },
                                "doseQuantity": {
                                    "value": 2,
                                    "unit": "mL",
                                    "system": "http://unitsofmeasure.org",
                                    "code": "mL"
                                }
                            },
                            {
                                "type": {
                                    "coding": [
                                        {
                                            "system": "http://epic.com/CodeSystem/dose-rate-type",
                                            "code": "ordered",
                                            "display": "ordered"
                                        }
                                    ],
                                    "text": "ordered"
                                },
                                "doseQuantity": {
                                    "value": 4,
                                    "unit": "mg",
                                    "system": "http://unitsofmeasure.org",
                                    "code": "mg"
                                }
                            }
                        ]
                    }
                ]
            },
            "search": {
                "mode": "match"
            }
        },
        {
            "link": [
                {
                    "relation": "self",
                    "url": "https://appmarket.epic.com/interconnect-amcurprd-oauth/api/FHIR/R4/MedicationRequest/eRHzduYQU1yVoeLeCSzbv9Q3"
                }
            ],
            "fullUrl": "https://appmarket.epic.com/interconnect-amcurprd-oauth/api/FHIR/R4/MedicationRequest/eRHzduYQU1yVoeLeCSzbv9Q3",
            "resource": {
                "resourceType": "MedicationRequest",
                "id": "eRHzduYQU1yVoeLeCSzbv9Q3",
                "identifier": [
                    {
                        "use": "usual",
                        "system": "urn:oid:1.2.840.114350.1.13.0.1.7.2.798268",
                        "value": "998684"
                    }
                ],
                "status": "completed",
                "intent": "order",
                "category": [
                    {
                        "coding": [
                            {
                                "system": "http://terminology.hl7.org/CodeSystem/medicationrequest-category",
                                "code": "inpatient",
                                "display": "Inpatient"
                            }
                        ],
                        "text": "Inpatient"
                    }
                ],
                "medicationReference": {
                    "reference": "Medication/exHanMETCXgFAY3EgA6vg-zU5GAnPwkxhkRG4noe6ZY7gfmrezLJmcwnGMi5Gp37e3",
                    "display": "sodium chloride 0.9 % bolus"
                },
                "subject": {
                    "reference": "Patient/ewKXaSxwlpsa7WGwKzzT1lg3",
                    "display": "Zzipmaster, Charlie"
                },
                "encounter": {
                    "reference": "Encounter/eokZego-sZbeUrF.xTYkiKQ3",
                    "identifier": {
                        "use": "usual",
                        "system": "urn:oid:1.2.840.114350.1.13.0.1.7.3.698084.8",
                        "value": "25683"
                    },
                    "display": "Hospital Encounter"
                },
                "authoredOn": "2024-04-02T13:40:33Z",
                "requester": {
                    "reference": "Practitioner/e8bM9BibcJ25SLe6lJi5i9Q3",
                    "type": "Practitioner",
                    "display": "Attending Physician Emergency, MD"
                },
                "recorder": {
                    "reference": "Practitioner/e8bM9BibcJ25SLe6lJi5i9Q3",
                    "type": "Practitioner",
                    "display": "Attending Physician Emergency, MD"
                },
                "courseOfTherapyType": {
                    "coding": [
                        {
                            "system": "http://terminology.hl7.org/CodeSystem/medicationrequest-course-of-therapy",
                            "code": "acute",
                            "display": "Short course (acute) therapy"
                        }
                    ],
                    "text": "Short course (acute) therapy"
                },
                "dosageInstruction": [
                    {
                        "text": "1,000 mL, Intravenous, at 2,000 mL/hr, Administer over 30 Minutes, Once, On Wed 4/3/24 at 0710, For 1 dose",
                        "timing": {
                            "repeat": {
                                "boundsPeriod": {
                                    "start": "2024-04-03T12:10:00Z",
                                    "end": "2024-04-03T12:40:00Z"
                                },
                                "count": 1,
                                "duration": 30,
                                "durationUnit": "min"
                            },
                            "code": {
                                "text": "Once"
                            }
                        },
                        "asNeededBoolean": false,
                        "route": {
                            "coding": [
                                {
                                    "system": "http://snomed.info/sct",
                                    "code": "418114005",
                                    "display": "Intravenous central route (qualifier value)"
                                },
                                {
                                    "system": "urn:oid:1.2.840.114350.1.13.0.1.7.4.798268.7025",
                                    "code": "11",
                                    "display": "Intravenous"
                                }
                            ],
                            "text": "Intravenous"
                        },
                        "doseAndRate": [
                            {
                                "type": {
                                    "coding": [
                                        {
                                            "system": "http://epic.com/CodeSystem/dose-rate-type",
                                            "code": "calculated",
                                            "display": "calculated"
                                        }
                                    ],
                                    "text": "calculated"
                                },
                                "doseQuantity": {
                                    "value": 1000,
                                    "unit": "mL",
                                    "system": "http://unitsofmeasure.org",
                                    "code": "mL"
                                }
                            },
                            {
                                "type": {
                                    "coding": [
                                        {
                                            "system": "http://epic.com/CodeSystem/dose-rate-type",
                                            "code": "admin-amount",
                                            "display": "admin-amount"
                                        }
                                    ],
                                    "text": "admin-amount"
                                },
                                "doseQuantity": {
                                    "value": 1000,
                                    "unit": "mL",
                                    "system": "http://unitsofmeasure.org",
                                    "code": "mL"
                                }
                            },
                            {
                                "type": {
                                    "coding": [
                                        {
                                            "system": "http://epic.com/CodeSystem/dose-rate-type",
                                            "code": "ordered",
                                            "display": "ordered"
                                        }
                                    ],
                                    "text": "ordered"
                                },
                                "doseQuantity": {
                                    "value": 1000,
                                    "unit": "mL",
                                    "system": "http://unitsofmeasure.org",
                                    "code": "mL"
                                }
                            }
                        ]
                    }
                ]
            },
            "search": {
                "mode": "match"
            }
        },
        {
            "link": [
                {
                    "relation": "self",
                    "url": "https://appmarket.epic.com/interconnect-amcurprd-oauth/api/FHIR/R4/MedicationRequest/eSzzG13MN0ozVhgUx.vjSGQ3"
                }
            ],
            "fullUrl": "https://appmarket.epic.com/interconnect-amcurprd-oauth/api/FHIR/R4/MedicationRequest/eSzzG13MN0ozVhgUx.vjSGQ3",
            "resource": {
                "resourceType": "MedicationRequest",
                "id": "eSzzG13MN0ozVhgUx.vjSGQ3",
                "identifier": [
                    {
                        "use": "usual",
                        "system": "urn:oid:1.2.840.114350.1.13.0.1.7.2.798268",
                        "value": "998681"
                    }
                ],
                "status": "active",
                "intent": "plan",
                "category": [
                    {
                        "coding": [
                            {
                                "system": "http://terminology.hl7.org/CodeSystem/medicationrequest-category",
                                "code": "community",
                                "display": "Community"
                            }
                        ],
                        "text": "Community"
                    }
                ],
                "reportedBoolean": true,
                "medicationReference": {
                    "reference": "Medication/e0YewyirFFCi.8Us5CmFCjAqmy8UrEqBGmhSBpqjNfhXwhkQyb8Yncr97BKgUB0kd3",
                    "display": "aluminum & magnesium hydroxide-simethicone (MAALOX,MYLANTA) suspension 200-200-20 mg/5mL"
                },
                "subject": {
                    "reference": "Patient/ewKXaSxwlpsa7WGwKzzT1lg3",
                    "display": "Zzipmaster, Charlie"
                },
                "encounter": {
                    "reference": "Encounter/eokZego-sZbeUrF.xTYkiKQ3",
                    "identifier": {
                        "use": "usual",
                        "system": "urn:oid:1.2.840.114350.1.13.0.1.7.3.698084.8",
                        "value": "25683"
                    },
                    "display": "Hospital Encounter"
                },
                "authoredOn": "2024-04-03T12:35:28Z",
                "requester": {
                    "extension": [
                        {
                            "valueCode": "unknown",
                            "url": "http://hl7.org/fhir/StructureDefinition/data-absent-reason"
                        }
                    ]
                },
                "recorder": {
                    "reference": "Practitioner/eclOxH-V7wEfUNGp5Nos9xw3",
                    "type": "Practitioner",
                    "display": "Nurse Epic Emergency, RN"
                },
                "courseOfTherapyType": {
                    "coding": [
                        {
                            "system": "http://terminology.hl7.org/CodeSystem/medicationrequest-course-of-therapy",
                            "code": "acute",
                            "display": "Short course (acute) therapy"
                        }
                    ],
                    "text": "Short course (acute) therapy"
                },
                "dosageInstruction": [
                    {
                        "text": "Take 5 mL by mouth every 6 (six) hours as needed for indigestion or heartburn., Historical Med",
                        "patientInstruction": "Take 5 mL by mouth every 6 (six) hours as needed for indigestion or heartburn.",
                        "timing": {
                            "repeat": {
                                "frequency": 1,
                                "period": 6,
                                "periodUnit": "h"
                            },
                            "code": {
                                "text": "Every 6 hours as needed"
                            }
                        },
                        "asNeededBoolean": true,
                        "route": {
                            "coding": [
                                {
                                    "system": "http://snomed.info/sct",
                                    "code": "260548002",
                                    "display": "Oral (qualifier value)"
                                },
                                {
                                    "system": "urn:oid:1.2.840.114350.1.13.0.1.7.4.798268.7025",
                                    "code": "15",
                                    "display": "Oral"
                                }
                            ],
                            "text": "Oral"
                        },
                        "method": {
                            "coding": [
                                {
                                    "system": "http://snomed.info/sct",
                                    "code": "419652001",
                                    "display": "Take"
                                }
                            ],
                            "text": "Take"
                        },
                        "doseAndRate": [
                            {
                                "type": {
                                    "coding": [
                                        {
                                            "system": "http://epic.com/CodeSystem/dose-rate-type",
                                            "code": "ordered",
                                            "display": "ordered"
                                        }
                                    ],
                                    "text": "ordered"
                                },
                                "doseQuantity": {
                                    "value": 5,
                                    "unit": "mL",
                                    "system": "http://unitsofmeasure.org",
                                    "code": "mL"
                                }
                            }
                        ]
                    }
                ]
            },
            "search": {
                "mode": "match"
            }
        },
        {
            "link": [
                {
                    "relation": "self",
                    "url": "https://appmarket.epic.com/interconnect-amcurprd-oauth/api/FHIR/R4/MedicationRequest/eVvq8anykpSCGSgIq.kNa9Q3"
                }
            ],
            "fullUrl": "https://appmarket.epic.com/interconnect-amcurprd-oauth/api/FHIR/R4/MedicationRequest/eVvq8anykpSCGSgIq.kNa9Q3",
            "resource": {
                "resourceType": "MedicationRequest",
                "id": "eVvq8anykpSCGSgIq.kNa9Q3",
                "identifier": [
                    {
                        "use": "usual",
                        "system": "urn:oid:1.2.840.114350.1.13.0.1.7.2.798268",
                        "value": "998689"
                    }
                ],
                "status": "active",
                "intent": "order",
                "category": [
                    {
                        "coding": [
                            {
                                "system": "http://terminology.hl7.org/CodeSystem/medicationrequest-category",
                                "code": "inpatient",
                                "display": "Inpatient"
                            }
                        ],
                        "text": "Inpatient"
                    }
                ],
                "medicationReference": {
                    "reference": "Medication/ecudywH8YsAHBKNnzL8a8E9KJP1SUBFJE301hJSrx5ByWOmKm0i5g7St62SdjAyV93",
                    "display": "pantoprozole (PROTONIX) infusion"
                },
                "subject": {
                    "reference": "Patient/ewKXaSxwlpsa7WGwKzzT1lg3",
                    "display": "Zzipmaster, Charlie"
                },
                "encounter": {
                    "reference": "Encounter/eokZego-sZbeUrF.xTYkiKQ3",
                    "identifier": {
                        "use": "usual",
                        "system": "urn:oid:1.2.840.114350.1.13.0.1.7.3.698084.8",
                        "value": "25683"
                    },
                    "display": "Hospital Encounter"
                },
                "authoredOn": "2024-04-02T13:40:35Z",
                "requester": {
                    "reference": "Practitioner/eWIbfgMpwsHwUkoWBcw7uAA3",
                    "type": "Practitioner",
                    "display": "Physician Gastroenterology, MD"
                },
                "recorder": {
                    "reference": "Practitioner/e8bM9BibcJ25SLe6lJi5i9Q3",
                    "type": "Practitioner",
                    "display": "Attending Physician Emergency, MD"
                },
                "courseOfTherapyType": {
                    "coding": [
                        {
                            "system": "http://terminology.hl7.org/CodeSystem/medicationrequest-course-of-therapy",
                            "code": "acute",
                            "display": "Short course (acute) therapy"
                        }
                    ],
                    "text": "Short course (acute) therapy"
                },
                "dosageInstruction": [
                    {
                        "text": "8 mg/hr (25 mL/hr), Intravenous, Continuous, Starting on Wed 4/3/24 at 0840, For 1 day 13 hours",
                        "timing": {
                            "repeat": {
                                "boundsPeriod": {
                                    "start": "2024-04-03T13:40:00Z",
                                    "end": "2024-04-05T02:00:00Z"
                                }
                            },
                            "code": {
                                "text": "Continuous"
                            }
                        },
                        "asNeededBoolean": false,
                        "route": {
                            "coding": [
                                {
                                    "system": "http://snomed.info/sct",
                                    "code": "418114005",
                                    "display": "Intravenous central route (qualifier value)"
                                },
                                {
                                    "system": "urn:oid:1.2.840.114350.1.13.0.1.7.4.798268.7025",
                                    "code": "11",
                                    "display": "Intravenous"
                                }
                            ],
                            "text": "Intravenous"
                        },
                        "doseAndRate": [
                            {
                                "type": {
                                    "coding": [
                                        {
                                            "system": "http://epic.com/CodeSystem/dose-rate-type",
                                            "code": "calculated",
                                            "display": "calculated"
                                        }
                                    ],
                                    "text": "calculated"
                                },
                                "doseQuantity": {
                                    "value": 8,
                                    "unit": "mg/hr",
                                    "system": "http://unitsofmeasure.org",
                                    "code": "mg/h"
                                }
                            },
                            {
                                "type": {
                                    "coding": [
                                        {
                                            "system": "http://epic.com/CodeSystem/dose-rate-type",
                                            "code": "ordered",
                                            "display": "ordered"
                                        }
                                    ],
                                    "text": "ordered"
                                },
                                "doseQuantity": {
                                    "value": 8,
                                    "unit": "mg/hr",
                                    "system": "http://unitsofmeasure.org",
                                    "code": "mg/h"
                                }
                            }
                        ]
                    }
                ]
            },
            "search": {
                "mode": "match"
            }
        },
        {
            "link": [
                {
                    "relation": "self",
                    "url": "https://appmarket.epic.com/interconnect-amcurprd-oauth/api/FHIR/R4/MedicationRequest/ee77nC0rLxzsDPoIIzn8-lg3"
                }
            ],
            "fullUrl": "https://appmarket.epic.com/interconnect-amcurprd-oauth/api/FHIR/R4/MedicationRequest/ee77nC0rLxzsDPoIIzn8-lg3",
            "resource": {
                "resourceType": "MedicationRequest",
                "id": "ee77nC0rLxzsDPoIIzn8-lg3",
                "identifier": [
                    {
                        "use": "usual",
                        "system": "urn:oid:1.2.840.114350.1.13.0.1.7.2.798268",
                        "value": "998685"
                    }
                ],
                "status": "active",
                "intent": "order",
                "category": [
                    {
                        "coding": [
                            {
                                "system": "http://terminology.hl7.org/CodeSystem/medicationrequest-category",
                                "code": "inpatient",
                                "display": "Inpatient"
                            }
                        ],
                        "text": "Inpatient"
                    }
                ],
                "medicationReference": {
                    "reference": "Medication/eIbDcqgyJtQw3A6c1dYj5ni5YOJyOyVuHiJWztxhxI6ehV6CrZthKiUiNaq2Z3zMn3",
                    "display": "dextrose 5 % and sodium chloride 0.9 % infusion"
                },
                "subject": {
                    "reference": "Patient/ewKXaSxwlpsa7WGwKzzT1lg3",
                    "display": "Zzipmaster, Charlie"
                },
                "encounter": {
                    "reference": "Encounter/eokZego-sZbeUrF.xTYkiKQ3",
                    "identifier": {
                        "use": "usual",
                        "system": "urn:oid:1.2.840.114350.1.13.0.1.7.3.698084.8",
                        "value": "25683"
                    },
                    "display": "Hospital Encounter"
                },
                "authoredOn": "2024-04-02T13:40:33Z",
                "requester": {
                    "reference": "Practitioner/eWIbfgMpwsHwUkoWBcw7uAA3",
                    "type": "Practitioner",
                    "display": "Physician Gastroenterology, MD"
                },
                "recorder": {
                    "reference": "Practitioner/e8bM9BibcJ25SLe6lJi5i9Q3",
                    "type": "Practitioner",
                    "display": "Attending Physician Emergency, MD"
                },
                "courseOfTherapyType": {
                    "coding": [
                        {
                            "system": "http://terminology.hl7.org/CodeSystem/medicationrequest-course-of-therapy",
                            "code": "acute",
                            "display": "Short course (acute) therapy"
                        }
                    ],
                    "text": "Short course (acute) therapy"
                },
                "dosageInstruction": [
                    {
                        "text": "100 mL/hr, Intravenous, Continuous, Starting on Wed 4/3/24 at 0740, For 1 day",
                        "timing": {
                            "repeat": {
                                "boundsPeriod": {
                                    "start": "2024-04-03T12:40:00Z",
                                    "end": "2024-04-04T12:00:00Z"
                                }
                            },
                            "code": {
                                "text": "Continuous"
                            }
                        },
                        "asNeededBoolean": false,
                        "route": {
                            "coding": [
                                {
                                    "system": "http://snomed.info/sct",
                                    "code": "418114005",
                                    "display": "Intravenous central route (qualifier value)"
                                },
                                {
                                    "system": "urn:oid:1.2.840.114350.1.13.0.1.7.4.798268.7025",
                                    "code": "11",
                                    "display": "Intravenous"
                                }
                            ],
                            "text": "Intravenous"
                        },
                        "doseAndRate": [
                            {
                                "type": {
                                    "coding": [
                                        {
                                            "system": "http://epic.com/CodeSystem/dose-rate-type",
                                            "code": "calculated",
                                            "display": "calculated"
                                        }
                                    ],
                                    "text": "calculated"
                                },
                                "doseQuantity": {
                                    "value": 100,
                                    "unit": "mL/hr",
                                    "system": "http://unitsofmeasure.org",
                                    "code": "mL/h"
                                }
                            },
                            {
                                "type": {
                                    "coding": [
                                        {
                                            "system": "http://epic.com/CodeSystem/dose-rate-type",
                                            "code": "ordered",
                                            "display": "ordered"
                                        }
                                    ],
                                    "text": "ordered"
                                },
                                "doseQuantity": {
                                    "value": 100,
                                    "unit": "mL/hr",
                                    "system": "http://unitsofmeasure.org",
                                    "code": "mL/h"
                                }
                            }
                        ]
                    }
                ]
            },
            "search": {
                "mode": "match"
            }
        },
        {
            "link": [
                {
                    "relation": "self",
                    "url": "https://appmarket.epic.com/interconnect-amcurprd-oauth/api/FHIR/R4/MedicationRequest/egq6bYGx4YDU6CAqC5qtc1g3"
                }
            ],
            "fullUrl": "https://appmarket.epic.com/interconnect-amcurprd-oauth/api/FHIR/R4/MedicationRequest/egq6bYGx4YDU6CAqC5qtc1g3",
            "resource": {
                "resourceType": "MedicationRequest",
                "id": "egq6bYGx4YDU6CAqC5qtc1g3",
                "identifier": [
                    {
                        "use": "usual",
                        "system": "urn:oid:1.2.840.114350.1.13.0.1.7.2.798268",
                        "value": "998682"
                    }
                ],
                "status": "active",
                "intent": "plan",
                "category": [
                    {
                        "coding": [
                            {
                                "system": "http://terminology.hl7.org/CodeSystem/medicationrequest-category",
                                "code": "community",
                                "display": "Community"
                            }
                        ],
                        "text": "Community"
                    }
                ],
                "reportedBoolean": true,
                "medicationReference": {
                    "reference": "Medication/ewc0wjYb6LToCpRQxP-R0CF94pSVGj9tOtxa079Db4lp5oI-MLqOjMsL7D0aMByZ43",
                    "display": "hydroCHLOROthiazide (MICROZIDE) capsule 12.5 mg"
                },
                "subject": {
                    "reference": "Patient/ewKXaSxwlpsa7WGwKzzT1lg3",
                    "display": "Zzipmaster, Charlie"
                },
                "encounter": {
                    "reference": "Encounter/eokZego-sZbeUrF.xTYkiKQ3",
                    "identifier": {
                        "use": "usual",
                        "system": "urn:oid:1.2.840.114350.1.13.0.1.7.3.698084.8",
                        "value": "25683"
                    },
                    "display": "Hospital Encounter"
                },
                "authoredOn": "2024-04-03T12:35:28Z",
                "requester": {
                    "extension": [
                        {
                            "valueCode": "unknown",
                            "url": "http://hl7.org/fhir/StructureDefinition/data-absent-reason"
                        }
                    ]
                },
                "recorder": {
                    "reference": "Practitioner/eclOxH-V7wEfUNGp5Nos9xw3",
                    "type": "Practitioner",
                    "display": "Nurse Epic Emergency, RN"
                },
                "courseOfTherapyType": {
                    "coding": [
                        {
                            "system": "http://terminology.hl7.org/CodeSystem/medicationrequest-course-of-therapy",
                            "code": "continuous",
                            "display": "Continuous long term therapy"
                        }
                    ],
                    "text": "Continuous long term therapy"
                },
                "dosageInstruction": [
                    {
                        "text": "Take 25 mg by mouth daily., Historical Med",
                        "patientInstruction": "Take 25 mg by mouth daily.",
                        "timing": {
                            "repeat": {
                                "timeOfDay": [
                                    "09:00:00"
                                ]
                            },
                            "code": {
                                "text": "0900"
                            }
                        },
                        "asNeededBoolean": false,
                        "route": {
                            "coding": [
                                {
                                    "system": "http://snomed.info/sct",
                                    "code": "260548002",
                                    "display": "Oral (qualifier value)"
                                },
                                {
                                    "system": "urn:oid:1.2.840.114350.1.13.0.1.7.4.798268.7025",
                                    "code": "15",
                                    "display": "Oral"
                                }
                            ],
                            "text": "Oral"
                        },
                        "method": {
                            "coding": [
                                {
                                    "system": "http://snomed.info/sct",
                                    "code": "419652001",
                                    "display": "Take"
                                }
                            ],
                            "text": "Take"
                        },
                        "doseAndRate": [
                            {
                                "type": {
                                    "coding": [
                                        {
                                            "system": "http://epic.com/CodeSystem/dose-rate-type",
                                            "code": "ordered",
                                            "display": "ordered"
                                        }
                                    ],
                                    "text": "ordered"
                                },
                                "doseQuantity": {
                                    "value": 25,
                                    "unit": "mg",
                                    "system": "http://unitsofmeasure.org",
                                    "code": "mg"
                                }
                            }
                        ]
                    }
                ]
            },
            "search": {
                "mode": "match"
            }
        },
        {
            "link": [
                {
                    "relation": "self",
                    "url": "https://appmarket.epic.com/interconnect-amcurprd-oauth/api/FHIR/R4/MedicationRequest/eia9m6P5sFEpYBsxF2Yhq1w3"
                }
            ],
            "fullUrl": "https://appmarket.epic.com/interconnect-amcurprd-oauth/api/FHIR/R4/MedicationRequest/eia9m6P5sFEpYBsxF2Yhq1w3",
            "resource": {
                "resourceType": "MedicationRequest",
                "id": "eia9m6P5sFEpYBsxF2Yhq1w3",
                "identifier": [
                    {
                        "use": "usual",
                        "system": "urn:oid:1.2.840.114350.1.13.0.1.7.2.798268",
                        "value": "998686"
                    }
                ],
                "status": "stopped",
                "intent": "order",
                "category": [
                    {
                        "coding": [
                            {
                                "system": "http://terminology.hl7.org/CodeSystem/medicationrequest-category",
                                "code": "inpatient",
                                "display": "Inpatient"
                            }
                        ],
                        "text": "Inpatient"
                    }
                ],
                "medicationReference": {
                    "reference": "Medication/eMMk9vKypSa2.UCaXZgLaLAcgyGTFQteLcCkfhPQeA5Ev.ZZ1hP363EgrC5cpQyEY3",
                    "display": "erythromycin IVPB in 100 mL"
                },
                "subject": {
                    "reference": "Patient/ewKXaSxwlpsa7WGwKzzT1lg3",
                    "display": "Zzipmaster, Charlie"
                },
                "encounter": {
                    "reference": "Encounter/eokZego-sZbeUrF.xTYkiKQ3",
                    "identifier": {
                        "use": "usual",
                        "system": "urn:oid:1.2.840.114350.1.13.0.1.7.3.698084.8",
                        "value": "25683"
                    },
                    "display": "Hospital Encounter"
                },
                "authoredOn": "2024-04-02T13:40:34Z",
                "requester": {
                    "reference": "Practitioner/e8bM9BibcJ25SLe6lJi5i9Q3",
                    "type": "Practitioner",
                    "display": "Attending Physician Emergency, MD"
                },
                "recorder": {
                    "reference": "Practitioner/e8bM9BibcJ25SLe6lJi5i9Q3",
                    "type": "Practitioner",
                    "display": "Attending Physician Emergency, MD"
                },
                "courseOfTherapyType": {
                    "coding": [
                        {
                            "system": "http://terminology.hl7.org/CodeSystem/medicationrequest-course-of-therapy",
                            "code": "acute",
                            "display": "Short course (acute) therapy"
                        }
                    ],
                    "text": "Short course (acute) therapy"
                },
                "dosageInstruction": [
                    {
                        "text": "258.6 mg (3 mg/kg \u00d7 86.2 kg Order-specific weight), Intravenous, at 100 mL/hr, Administer over 60 Minutes, Every 6 hours, First dose on Wed 4/3/24 at 0740",
                        "timing": {
                            "repeat": {
                                "boundsPeriod": {
                                    "start": "2024-04-03T12:40:00Z",
                                    "end": "2024-04-03T19:24:21Z"
                                },
                                "duration": 60,
                                "durationUnit": "min",
                                "frequency": 1,
                                "period": 6,
                                "periodUnit": "h"
                            },
                            "code": {
                                "text": "Every 6 (six) hours"
                            }
                        },
                        "asNeededBoolean": false,
                        "route": {
                            "coding": [
                                {
                                    "system": "http://snomed.info/sct",
                                    "code": "418114005",
                                    "display": "Intravenous central route (qualifier value)"
                                },
                                {
                                    "system": "urn:oid:1.2.840.114350.1.13.0.1.7.4.798268.7025",
                                    "code": "11",
                                    "display": "Intravenous"
                                }
                            ],
                            "text": "Intravenous"
                        },
                        "doseAndRate": [
                            {
                                "type": {
                                    "coding": [
                                        {
                                            "system": "http://epic.com/CodeSystem/dose-rate-type",
                                            "code": "calculated",
                                            "display": "calculated"
                                        }
                                    ],
                                    "text": "calculated"
                                },
                                "doseQuantity": {
                                    "value": 258.6,
                                    "unit": "mg",
                                    "system": "http://unitsofmeasure.org",
                                    "code": "mg"
                                }
                            },
                            {
                                "type": {
                                    "coding": [
                                        {
                                            "system": "http://epic.com/CodeSystem/dose-rate-type",
                                            "code": "admin-amount",
                                            "display": "admin-amount"
                                        }
                                    ],
                                    "text": "admin-amount"
                                },
                                "doseQuantity": {
                                    "value": 258.6,
                                    "unit": "mg",
                                    "system": "http://unitsofmeasure.org",
                                    "code": "mg"
                                }
                            },
                            {
                                "type": {
                                    "coding": [
                                        {
                                            "system": "http://epic.com/CodeSystem/dose-rate-type",
                                            "code": "ordered",
                                            "display": "ordered"
                                        }
                                    ],
                                    "text": "ordered"
                                },
                                "doseQuantity": {
                                    "value": 3,
                                    "unit": "mg/kg",
                                    "system": "http://unitsofmeasure.org",
                                    "code": "mg/kg"
                                }
                            }
                        ]
                    }
                ]
            },
            "search": {
                "mode": "match"
            }
        },
        {
            "link": [
                {
                    "relation": "self",
                    "url": "https://appmarket.epic.com/interconnect-amcurprd-oauth/api/FHIR/R4/MedicationRequest/enoXgjdPY3aIuBkH.e0IgJg3"
                }
            ],
            "fullUrl": "https://appmarket.epic.com/interconnect-amcurprd-oauth/api/FHIR/R4/MedicationRequest/enoXgjdPY3aIuBkH.e0IgJg3",
            "resource": {
                "resourceType": "MedicationRequest",
                "id": "enoXgjdPY3aIuBkH.e0IgJg3",
                "identifier": [
                    {
                        "use": "usual",
                        "system": "urn:oid:1.2.840.114350.1.13.0.1.7.2.798268",
                        "value": "998683"
                    }
                ],
                "status": "active",
                "intent": "plan",
                "category": [
                    {
                        "coding": [
                            {
                                "system": "http://terminology.hl7.org/CodeSystem/medicationrequest-category",
                                "code": "community",
                                "display": "Community"
                            }
                        ],
                        "text": "Community"
                    }
                ],
                "reportedBoolean": true,
                "medicationReference": {
                    "reference": "Medication/eBoeW2oM4uW.JMhod.FvtAr8t4HxKKy3.ihKIu5wwUwlpSal1PP2tUpQsONcoEZbS3",
                    "display": "metFORMIN (GLUCOPHAGE) tablet"
                },
                "subject": {
                    "reference": "Patient/ewKXaSxwlpsa7WGwKzzT1lg3",
                    "display": "Zzipmaster, Charlie"
                },
                "encounter": {
                    "reference": "Encounter/eokZego-sZbeUrF.xTYkiKQ3",
                    "identifier": {
                        "use": "usual",
                        "system": "urn:oid:1.2.840.114350.1.13.0.1.7.3.698084.8",
                        "value": "25683"
                    },
                    "display": "Hospital Encounter"
                },
                "authoredOn": "2024-04-03T12:35:29Z",
                "requester": {
                    "extension": [
                        {
                            "valueCode": "unknown",
                            "url": "http://hl7.org/fhir/StructureDefinition/data-absent-reason"
                        }
                    ]
                },
                "recorder": {
                    "reference": "Practitioner/eclOxH-V7wEfUNGp5Nos9xw3",
                    "type": "Practitioner",
                    "display": "Nurse Epic Emergency, RN"
                },
                "courseOfTherapyType": {
                    "coding": [
                        {
                            "system": "http://terminology.hl7.org/CodeSystem/medicationrequest-course-of-therapy",
                            "code": "continuous",
                            "display": "Continuous long term therapy"
                        }
                    ],
                    "text": "Continuous long term therapy"
                },
                "dosageInstruction": [
                    {
                        "text": "Take 500 mg by mouth 2 (two) times a day with meals., Historical Med",
                        "patientInstruction": "Take 500 mg by mouth 2 (two) times a day with meals.",
                        "timing": {
                            "repeat": {
                                "timeOfDay": [
                                    "08:00:00",
                                    "18:00:00"
                                ]
                            },
                            "code": {
                                "text": "0800, 1800"
                            }
                        },
                        "asNeededBoolean": false,
                        "route": {
                            "coding": [
                                {
                                    "system": "http://snomed.info/sct",
                                    "code": "260548002",
                                    "display": "Oral (qualifier value)"
                                },
                                {
                                    "system": "urn:oid:1.2.840.114350.1.13.0.1.7.4.798268.7025",
                                    "code": "15",
                                    "display": "Oral"
                                }
                            ],
                            "text": "Oral"
                        },
                        "method": {
                            "coding": [
                                {
                                    "system": "http://snomed.info/sct",
                                    "code": "419652001",
                                    "display": "Take"
                                }
                            ],
                            "text": "Take"
                        },
                        "doseAndRate": [
                            {
                                "type": {
                                    "coding": [
                                        {
                                            "system": "http://epic.com/CodeSystem/dose-rate-type",
                                            "code": "ordered",
                                            "display": "ordered"
                                        }
                                    ],
                                    "text": "ordered"
                                },
                                "doseQuantity": {
                                    "value": 500,
                                    "unit": "mg",
                                    "system": "http://unitsofmeasure.org",
                                    "code": "mg"
                                }
                            }
                        ]
                    }
                ]
            },
            "search": {
                "mode": "match"
            }
        },
        {
            "link": [
                {
                    "relation": "self",
                    "url": "https://appmarket.epic.com/interconnect-amcurprd-oauth/api/FHIR/R4/MedicationRequest/esPVLQHl62xVtpud0ecuFrg3"
                }
            ],
            "fullUrl": "https://appmarket.epic.com/interconnect-amcurprd-oauth/api/FHIR/R4/MedicationRequest/esPVLQHl62xVtpud0ecuFrg3",
            "resource": {
                "resourceType": "MedicationRequest",
                "id": "esPVLQHl62xVtpud0ecuFrg3",
                "identifier": [
                    {
                        "use": "usual",
                        "system": "urn:oid:1.2.840.114350.1.13.0.1.7.2.798268",
                        "value": "998732"
                    }
                ],
                "status": "active",
                "intent": "order",
                "category": [
                    {
                        "coding": [
                            {
                                "system": "http://terminology.hl7.org/CodeSystem/medicationrequest-category",
                                "code": "inpatient",
                                "display": "Inpatient"
                            }
                        ],
                        "text": "Inpatient"
                    }
                ],
                "medicationReference": {
                    "reference": "Medication/erPDTHR6K2WA2zNgYrjQmN-S7oOQ43bGai.TAvq9IhnkvjPKOFVD6Muqr5d.m2Vay3",
                    "display": "ondansetron (ZOFRAN) 2 mg/mL injection"
                },
                "subject": {
                    "reference": "Patient/ewKXaSxwlpsa7WGwKzzT1lg3",
                    "display": "Zzipmaster, Charlie"
                },
                "encounter": {
                    "reference": "Encounter/eokZego-sZbeUrF.xTYkiKQ3",
                    "identifier": {
                        "use": "usual",
                        "system": "urn:oid:1.2.840.114350.1.13.0.1.7.3.698084.8",
                        "value": "25683"
                    },
                    "display": "Hospital Encounter"
                },
                "authoredOn": "2024-04-03T21:25:45Z",
                "requester": {
                    "reference": "Practitioner/eWIbfgMpwsHwUkoWBcw7uAA3",
                    "type": "Practitioner",
                    "display": "Physician Gastroenterology, MD"
                },
                "recorder": {
                    "reference": "Practitioner/eWIbfgMpwsHwUkoWBcw7uAA3",
                    "type": "Practitioner",
                    "display": "Physician Gastroenterology, MD"
                },
                "courseOfTherapyType": {
                    "coding": [
                        {
                            "system": "http://terminology.hl7.org/CodeSystem/medicationrequest-course-of-therapy",
                            "code": "acute",
                            "display": "Short course (acute) therapy"
                        }
                    ],
                    "text": "Short course (acute) therapy"
                },
                "dosageInstruction": [
                    {
                        "text": "4 mg, Intravenous, Every 6 hours PRN, nausea, vomiting, Starting on Wed 4/3/24 at 1625",
                        "timing": {
                            "repeat": {
                                "boundsPeriod": {
                                    "start": "2024-04-03T21:25:35Z"
                                },
                                "frequency": 1,
                                "period": 6,
                                "periodUnit": "h"
                            },
                            "code": {
                                "text": "Every 6 hours as needed"
                            }
                        },
                        "asNeededBoolean": true,
                        "route": {
                            "coding": [
                                {
                                    "system": "http://snomed.info/sct",
                                    "code": "418114005",
                                    "display": "Intravenous central route (qualifier value)"
                                },
                                {
                                    "system": "urn:oid:1.2.840.114350.1.13.0.1.7.4.798268.7025",
                                    "code": "11",
                                    "display": "Intravenous"
                                }
                            ],
                            "text": "Intravenous"
                        },
                        "doseAndRate": [
                            {
                                "type": {
                                    "coding": [
                                        {
                                            "system": "http://epic.com/CodeSystem/dose-rate-type",
                                            "code": "calculated",
                                            "display": "calculated"
                                        }
                                    ],
                                    "text": "calculated"
                                },
                                "doseQuantity": {
                                    "value": 4,
                                    "unit": "mg",
                                    "system": "http://unitsofmeasure.org",
                                    "code": "mg"
                                }
                            },
                            {
                                "type": {
                                    "coding": [
                                        {
                                            "system": "http://epic.com/CodeSystem/dose-rate-type",
                                            "code": "admin-amount",
                                            "display": "admin-amount"
                                        }
                                    ],
                                    "text": "admin-amount"
                                },
                                "doseQuantity": {
                                    "value": 2,
                                    "unit": "mL",
                                    "system": "http://unitsofmeasure.org",
                                    "code": "mL"
                                }
                            },
                            {
                                "type": {
                                    "coding": [
                                        {
                                            "system": "http://epic.com/CodeSystem/dose-rate-type",
                                            "code": "ordered",
                                            "display": "ordered"
                                        }
                                    ],
                                    "text": "ordered"
                                },
                                "doseQuantity": {
                                    "value": 4,
                                    "unit": "mg",
                                    "system": "http://unitsofmeasure.org",
                                    "code": "mg"
                                }
                            }
                        ]
                    }
                ]
            },
            "search": {
                "mode": "match"
            }
        },
        {
            "link": [
                {
                    "relation": "self",
                    "url": "https://appmarket.epic.com/interconnect-amcurprd-oauth/api/FHIR/R4/MedicationRequest/euN9H.tQunu6l-I10owhzUw3"
                }
            ],
            "fullUrl": "https://appmarket.epic.com/interconnect-amcurprd-oauth/api/FHIR/R4/MedicationRequest/euN9H.tQunu6l-I10owhzUw3",
            "resource": {
                "resourceType": "MedicationRequest",
                "id": "euN9H.tQunu6l-I10owhzUw3",
                "identifier": [
                    {
                        "use": "usual",
                        "system": "urn:oid:1.2.840.114350.1.13.0.1.7.2.798268",
                        "value": "998688"
                    }
                ],
                "status": "completed",
                "intent": "order",
                "category": [
                    {
                        "coding": [
                            {
                                "system": "http://terminology.hl7.org/CodeSystem/medicationrequest-category",
                                "code": "inpatient",
                                "display": "Inpatient"
                            }
                        ],
                        "text": "Inpatient"
                    }
                ],
                "medicationReference": {
                    "reference": "Medication/e8Uv6Vo1nz.scQHcKopC7JgzIUOD69YQMOJs5C8881PhmApTt2MkoMLrNMi7swOPj3",
                    "display": "pantoprazole (PROTONIX) injection 40 mg"
                },
                "subject": {
                    "reference": "Patient/ewKXaSxwlpsa7WGwKzzT1lg3",
                    "display": "Zzipmaster, Charlie"
                },
                "encounter": {
                    "reference": "Encounter/eokZego-sZbeUrF.xTYkiKQ3",
                    "identifier": {
                        "use": "usual",
                        "system": "urn:oid:1.2.840.114350.1.13.0.1.7.3.698084.8",
                        "value": "25683"
                    },
                    "display": "Hospital Encounter"
                },
                "authoredOn": "2024-04-02T13:40:35Z",
                "requester": {
                    "reference": "Practitioner/e8bM9BibcJ25SLe6lJi5i9Q3",
                    "type": "Practitioner",
                    "display": "Attending Physician Emergency, MD"
                },
                "recorder": {
                    "reference": "Practitioner/e8bM9BibcJ25SLe6lJi5i9Q3",
                    "type": "Practitioner",
                    "display": "Attending Physician Emergency, MD"
                },
                "courseOfTherapyType": {
                    "coding": [
                        {
                            "system": "http://terminology.hl7.org/CodeSystem/medicationrequest-course-of-therapy",
                            "code": "acute",
                            "display": "Short course (acute) therapy"
                        }
                    ],
                    "text": "Short course (acute) therapy"
                },
                "dosageInstruction": [
                    {
                        "text": "80 mg, Intravenous, Once, On Wed 4/3/24 at 0740, For 1 dose\nDilute with 10 mL of normal saline.\n",
                        "timing": {
                            "repeat": {
                                "boundsPeriod": {
                                    "start": "2024-04-03T12:40:00Z",
                                    "end": "2024-04-03T12:40:00Z"
                                },
                                "count": 1
                            },
                            "code": {
                                "text": "Once"
                            }
                        },
                        "asNeededBoolean": false,
                        "route": {
                            "coding": [
                                {
                                    "system": "http://snomed.info/sct",
                                    "code": "418114005",
                                    "display": "Intravenous central route (qualifier value)"
                                },
                                {
                                    "system": "urn:oid:1.2.840.114350.1.13.0.1.7.4.798268.7025",
                                    "code": "11",
                                    "display": "Intravenous"
                                }
                            ],
                            "text": "Intravenous"
                        },
                        "doseAndRate": [
                            {
                                "type": {
                                    "coding": [
                                        {
                                            "system": "http://epic.com/CodeSystem/dose-rate-type",
                                            "code": "calculated",
                                            "display": "calculated"
                                        }
                                    ],
                                    "text": "calculated"
                                },
                                "doseQuantity": {
                                    "value": 80,
                                    "unit": "mg",
                                    "system": "http://unitsofmeasure.org",
                                    "code": "mg"
                                }
                            },
                            {
                                "type": {
                                    "coding": [
                                        {
                                            "system": "http://epic.com/CodeSystem/dose-rate-type",
                                            "code": "admin-amount",
                                            "display": "admin-amount"
                                        }
                                    ],
                                    "text": "admin-amount"
                                },
                                "doseQuantity": {
                                    "value": 80,
                                    "unit": "mg",
                                    "system": "http://unitsofmeasure.org",
                                    "code": "mg"
                                }
                            },
                            {
                                "type": {
                                    "coding": [
                                        {
                                            "system": "http://epic.com/CodeSystem/dose-rate-type",
                                            "code": "ordered",
                                            "display": "ordered"
                                        }
                                    ],
                                    "text": "ordered"
                                },
                                "doseQuantity": {
                                    "value": 80,
                                    "unit": "mg",
                                    "system": "http://unitsofmeasure.org",
                                    "code": "mg"
                                }
                            }
                        ]
                    }
                ]
            },
            "search": {
                "mode": "match"
            }
        },
        {
            "link": [
                {
                    "relation": "self",
                    "url": "https://appmarket.epic.com/interconnect-amcurprd-oauth/api/FHIR/R4/Medication/e0YewyirFFCi.8Us5CmFCjAqmy8UrEqBGmhSBpqjNfhXwhkQyb8Yncr97BKgUB0kd3"
                }
            ],
            "fullUrl": "https://appmarket.epic.com/interconnect-amcurprd-oauth/api/FHIR/R4/Medication/e0YewyirFFCi.8Us5CmFCjAqmy8UrEqBGmhSBpqjNfhXwhkQyb8Yncr97BKgUB0kd3",
            "resource": {
                "resourceType": "Medication",
                "id": "e0YewyirFFCi.8Us5CmFCjAqmy8UrEqBGmhSBpqjNfhXwhkQyb8Yncr97BKgUB0kd3",
                "code": {
                    "coding": [
                        {
                            "system": "urn:oid:2.16.840.1.113883.6.253",
                            "code": "24509"
                        },
                        {
                            "system": "urn:oid:2.16.840.1.113883.6.68",
                            "code": "48991003101810"
                        },
                        {
                            "system": "urn:oid:2.16.840.1.113883.6.162",
                            "code": "02608"
                        },
                        {
                            "system": "http://www.nlm.nih.gov/research/umls/rxnorm",
                            "code": "612"
                        },
                        {
                            "system": "http://www.nlm.nih.gov/research/umls/rxnorm",
                            "code": "6581"
                        },
                        {
                            "system": "http://www.nlm.nih.gov/research/umls/rxnorm",
                            "code": "9796"
                        },
                        {
                            "system": "http://www.nlm.nih.gov/research/umls/rxnorm",
                            "code": "307746"
                        },
                        {
                            "system": "http://www.nlm.nih.gov/research/umls/rxnorm",
                            "code": "466588"
                        }
                    ],
                    "text": "aluminum & magnesium hydroxide-simethicone (MAALOX,MYLANTA) suspension 200-200-20 mg/5mL"
                },
                "form": {
                    "coding": [
                        {
                            "system": "urn:oid:1.2.840.114350.1.13.0.1.7.4.698288.310",
                            "code": "SUSP",
                            "display": "suspension"
                        }
                    ],
                    "text": "suspension"
                },
                "ingredient": [
                    {
                        "itemCodeableConcept": {
                            "coding": [
                                {
                                    "system": "urn:oid:2.16.840.1.113883.6.253",
                                    "code": "24509"
                                },
                                {
                                    "system": "urn:oid:2.16.840.1.113883.6.68",
                                    "code": "48991003101810"
                                },
                                {
                                    "system": "urn:oid:2.16.840.1.113883.6.162",
                                    "code": "02608"
                                },
                                {
                                    "system": "http://www.nlm.nih.gov/research/umls/rxnorm",
                                    "code": "612"
                                },
                                {
                                    "system": "http://www.nlm.nih.gov/research/umls/rxnorm",
                                    "code": "6581"
                                },
                                {
                                    "system": "http://www.nlm.nih.gov/research/umls/rxnorm",
                                    "code": "9796"
                                },
                                {
                                    "system": "http://www.nlm.nih.gov/research/umls/rxnorm",
                                    "code": "307746"
                                },
                                {
                                    "system": "http://www.nlm.nih.gov/research/umls/rxnorm",
                                    "code": "466588"
                                }
                            ],
                            "text": "aluminum & magnesium hydroxide-simethicone (MAALOX,MYLANTA) suspension 200-200-20 mg/5mL"
                        }
                    }
                ]
            },
            "search": {
                "mode": "include"
            }
        },
        {
            "link": [
                {
                    "relation": "self",
                    "url": "https://appmarket.epic.com/interconnect-amcurprd-oauth/api/FHIR/R4/Medication/e8Uv6Vo1nz.scQHcKopC7JgzIUOD69YQMOJs5C8881PhmApTt2MkoMLrNMi7swOPj3"
                }
            ],
            "fullUrl": "https://appmarket.epic.com/interconnect-amcurprd-oauth/api/FHIR/R4/Medication/e8Uv6Vo1nz.scQHcKopC7JgzIUOD69YQMOJs5C8881PhmApTt2MkoMLrNMi7swOPj3",
            "resource": {
                "resourceType": "Medication",
                "id": "e8Uv6Vo1nz.scQHcKopC7JgzIUOD69YQMOJs5C8881PhmApTt2MkoMLrNMi7swOPj3",
                "code": {
                    "coding": [
                        {
                            "system": "urn:oid:2.16.840.1.113883.6.253",
                            "code": "61610"
                        },
                        {
                            "system": "urn:oid:2.16.840.1.113883.6.68",
                            "code": "49270070102120"
                        },
                        {
                            "system": "urn:oid:2.16.840.1.113883.6.162",
                            "code": "26383"
                        },
                        {
                            "system": "http://www.nlm.nih.gov/research/umls/rxnorm",
                            "code": "40790"
                        },
                        {
                            "system": "http://www.nlm.nih.gov/research/umls/rxnorm",
                            "code": "253191"
                        },
                        {
                            "system": "http://www.nlm.nih.gov/research/umls/rxnorm",
                            "code": "283669"
                        }
                    ],
                    "text": "pantoprazole (PROTONIX) injection 40 mg"
                },
                "form": {
                    "coding": [
                        {
                            "system": "urn:oid:1.2.840.114350.1.13.0.1.7.4.698288.310",
                            "code": "SOLR",
                            "display": "reconstituted solution"
                        }
                    ],
                    "text": "reconstituted solution"
                },
                "ingredient": [
                    {
                        "itemCodeableConcept": {
                            "coding": [
                                {
                                    "system": "urn:oid:2.16.840.1.113883.6.253",
                                    "code": "61610"
                                },
                                {
                                    "system": "urn:oid:2.16.840.1.113883.6.68",
                                    "code": "49270070102120"
                                },
                                {
                                    "system": "urn:oid:2.16.840.1.113883.6.162",
                                    "code": "26383"
                                },
                                {
                                    "system": "http://www.nlm.nih.gov/research/umls/rxnorm",
                                    "code": "40790"
                                },
                                {
                                    "system": "http://www.nlm.nih.gov/research/umls/rxnorm",
                                    "code": "253191"
                                },
                                {
                                    "system": "http://www.nlm.nih.gov/research/umls/rxnorm",
                                    "code": "283669"
                                }
                            ],
                            "text": "pantoprazole (PROTONIX) injection 40 mg"
                        },
                        "strength": {
                            "numerator": {
                                "value": 40,
                                "unit": "MG",
                                "system": "http://unitsofmeasure.org",
                                "code": "mg"
                            },
                            "denominator": {
                                "value": 40,
                                "unit": "MG",
                                "system": "http://unitsofmeasure.org",
                                "code": "mg"
                            }
                        }
                    }
                ]
            },
            "search": {
                "mode": "include"
            }
        },
        {
            "link": [
                {
                    "relation": "self",
                    "url": "https://appmarket.epic.com/interconnect-amcurprd-oauth/api/FHIR/R4/Medication/eBoeW2oM4uW.JMhod.FvtAr8t4HxKKy3.ihKIu5wwUwlpSal1PP2tUpQsONcoEZbS3"
                }
            ],
            "fullUrl": "https://appmarket.epic.com/interconnect-amcurprd-oauth/api/FHIR/R4/Medication/eBoeW2oM4uW.JMhod.FvtAr8t4HxKKy3.ihKIu5wwUwlpSal1PP2tUpQsONcoEZbS3",
            "resource": {
                "resourceType": "Medication",
                "id": "eBoeW2oM4uW.JMhod.FvtAr8t4HxKKy3.ihKIu5wwUwlpSal1PP2tUpQsONcoEZbS3",
                "code": {
                    "coding": [
                        {
                            "system": "urn:oid:2.16.840.1.113883.6.253",
                            "code": "28557"
                        },
                        {
                            "system": "urn:oid:2.16.840.1.113883.6.68",
                            "code": "27250050000320"
                        },
                        {
                            "system": "urn:oid:2.16.840.1.113883.6.162",
                            "code": "09554"
                        },
                        {
                            "system": "http://www.nlm.nih.gov/research/umls/rxnorm",
                            "code": "6809"
                        },
                        {
                            "system": "http://www.nlm.nih.gov/research/umls/rxnorm",
                            "code": "235743"
                        },
                        {
                            "system": "http://www.nlm.nih.gov/research/umls/rxnorm",
                            "code": "861007"
                        }
                    ],
                    "text": "metFORMIN (GLUCOPHAGE) tablet"
                },
                "form": {
                    "coding": [
                        {
                            "system": "urn:oid:1.2.840.114350.1.13.0.1.7.4.698288.310",
                            "code": "TABS",
                            "display": "tablet"
                        }
                    ],
                    "text": "tablet"
                },
                "ingredient": [
                    {
                        "itemCodeableConcept": {
                            "coding": [
                                {
                                    "system": "urn:oid:2.16.840.1.113883.6.253",
                                    "code": "28557"
                                },
                                {
                                    "system": "urn:oid:2.16.840.1.113883.6.68",
                                    "code": "27250050000320"
                                },
                                {
                                    "system": "urn:oid:2.16.840.1.113883.6.162",
                                    "code": "09554"
                                },
                                {
                                    "system": "http://www.nlm.nih.gov/research/umls/rxnorm",
                                    "code": "6809"
                                },
                                {
                                    "system": "http://www.nlm.nih.gov/research/umls/rxnorm",
                                    "code": "235743"
                                },
                                {
                                    "system": "http://www.nlm.nih.gov/research/umls/rxnorm",
                                    "code": "861007"
                                }
                            ],
                            "text": "metFORMIN (GLUCOPHAGE) tablet"
                        },
                        "strength": {
                            "numerator": {
                                "value": 500,
                                "unit": "MG",
                                "system": "http://unitsofmeasure.org",
                                "code": "mg"
                            },
                            "denominator": {
                                "value": 500,
                                "unit": "MG",
                                "system": "http://unitsofmeasure.org",
                                "code": "mg"
                            }
                        }
                    }
                ]
            },
            "search": {
                "mode": "include"
            }
        },
        {
            "link": [
                {
                    "relation": "self",
                    "url": "https://appmarket.epic.com/interconnect-amcurprd-oauth/api/FHIR/R4/Medication/eIbDcqgyJtQw3A6c1dYj5ni5YOJyOyVuHiJWztxhxI6ehV6CrZthKiUiNaq2Z3zMn3"
                }
            ],
            "fullUrl": "https://appmarket.epic.com/interconnect-amcurprd-oauth/api/FHIR/R4/Medication/eIbDcqgyJtQw3A6c1dYj5ni5YOJyOyVuHiJWztxhxI6ehV6CrZthKiUiNaq2Z3zMn3",
            "resource": {
                "resourceType": "Medication",
                "id": "eIbDcqgyJtQw3A6c1dYj5ni5YOJyOyVuHiJWztxhxI6ehV6CrZthKiUiNaq2Z3zMn3",
                "code": {
                    "coding": [
                        {
                            "system": "urn:oid:2.16.840.1.113883.6.253",
                            "code": "26792"
                        },
                        {
                            "system": "urn:oid:2.16.840.1.113883.6.68",
                            "code": "79993002202035"
                        },
                        {
                            "system": "http://www.nlm.nih.gov/research/umls/rxnorm",
                            "code": "4850"
                        },
                        {
                            "system": "http://www.nlm.nih.gov/research/umls/rxnorm",
                            "code": "9863"
                        },
                        {
                            "system": "http://www.nlm.nih.gov/research/umls/rxnorm",
                            "code": "108190"
                        },
                        {
                            "system": "http://www.nlm.nih.gov/research/umls/rxnorm",
                            "code": "1795344"
                        },
                        {
                            "system": "http://www.nlm.nih.gov/research/umls/rxnorm",
                            "code": "1795346"
                        },
                        {
                            "system": "http://www.nlm.nih.gov/research/umls/rxnorm",
                            "code": "1795348"
                        },
                        {
                            "system": "urn:oid:2.16.840.1.113883.6.162",
                            "code": "04601"
                        }
                    ],
                    "text": "dextrose 5 % and sodium chloride 0.9 % infusion"
                },
                "form": {
                    "coding": [
                        {
                            "system": "urn:oid:1.2.840.114350.1.13.0.1.7.4.698288.310",
                            "code": "SOLN",
                            "display": "solution"
                        }
                    ],
                    "text": "solution"
                },
                "ingredient": [
                    {
                        "itemCodeableConcept": {
                            "coding": [
                                {
                                    "system": "urn:oid:2.16.840.1.113883.6.253",
                                    "code": "26792"
                                },
                                {
                                    "system": "urn:oid:2.16.840.1.113883.6.68",
                                    "code": "79993002202035"
                                },
                                {
                                    "system": "http://www.nlm.nih.gov/research/umls/rxnorm",
                                    "code": "4850"
                                },
                                {
                                    "system": "http://www.nlm.nih.gov/research/umls/rxnorm",
                                    "code": "9863"
                                },
                                {
                                    "system": "http://www.nlm.nih.gov/research/umls/rxnorm",
                                    "code": "108190"
                                },
                                {
                                    "system": "http://www.nlm.nih.gov/research/umls/rxnorm",
                                    "code": "1795344"
                                },
                                {
                                    "system": "http://www.nlm.nih.gov/research/umls/rxnorm",
                                    "code": "1795346"
                                },
                                {
                                    "system": "http://www.nlm.nih.gov/research/umls/rxnorm",
                                    "code": "1795348"
                                },
                                {
                                    "system": "urn:oid:2.16.840.1.113883.6.162",
                                    "code": "04601"
                                }
                            ],
                            "text": "dextrose 5 % and sodium chloride 0.9 % infusion"
                        }
                    }
                ]
            },
            "search": {
                "mode": "include"
            }
        },
        {
            "link": [
                {
                    "relation": "self",
                    "url": "https://appmarket.epic.com/interconnect-amcurprd-oauth/api/FHIR/R4/Medication/eMMk9vKypSa2.UCaXZgLaLAcgyGTFQteLcCkfhPQeA5Ev.ZZ1hP363EgrC5cpQyEY3"
                }
            ],
            "fullUrl": "https://appmarket.epic.com/interconnect-amcurprd-oauth/api/FHIR/R4/Medication/eMMk9vKypSa2.UCaXZgLaLAcgyGTFQteLcCkfhPQeA5Ev.ZZ1hP363EgrC5cpQyEY3",
            "resource": {
                "resourceType": "Medication",
                "id": "eMMk9vKypSa2.UCaXZgLaLAcgyGTFQteLcCkfhPQeA5Ev.ZZ1hP363EgrC5cpQyEY3",
                "code": {
                    "text": "erythromycin IVPB in 100 mL"
                },
                "ingredient": [
                    {
                        "itemReference": {
                            "reference": "Medication/eYST.ah-4gmxDsOgA6pMJhg3",
                            "display": "erythromycin"
                        },
                        "strength": {
                            "numerator": {
                                "value": 258.6,
                                "unit": "mg",
                                "system": "http://unitsofmeasure.org",
                                "code": "mg"
                            },
                            "denominator": {
                                "value": 100,
                                "unit": "mL",
                                "system": "http://unitsofmeasure.org",
                                "code": "mL"
                            }
                        }
                    },
                    {
                        "itemReference": {
                            "reference": "Medication/etFljppYv7KjLyRuKqJ2ypw3",
                            "display": "sodium chloride 0.9 %"
                        },
                        "strength": {
                            "numerator": {
                                "value": 100,
                                "unit": "mL",
                                "system": "http://unitsofmeasure.org",
                                "code": "mL"
                            },
                            "denominator": {
                                "value": 100,
                                "unit": "mL",
                                "system": "http://unitsofmeasure.org",
                                "code": "mL"
                            }
                        }
                    }
                ]
            },
            "search": {
                "mode": "include"
            }
        },
        {
            "link": [
                {
                    "relation": "self",
                    "url": "https://appmarket.epic.com/interconnect-amcurprd-oauth/api/FHIR/R4/Medication/ecudywH8YsAHBKNnzL8a8E9KJP1SUBFJE301hJSrx5ByWOmKm0i5g7St62SdjAyV93"
                }
            ],
            "fullUrl": "https://appmarket.epic.com/interconnect-amcurprd-oauth/api/FHIR/R4/Medication/ecudywH8YsAHBKNnzL8a8E9KJP1SUBFJE301hJSrx5ByWOmKm0i5g7St62SdjAyV93",
            "resource": {
                "resourceType": "Medication",
                "id": "ecudywH8YsAHBKNnzL8a8E9KJP1SUBFJE301hJSrx5ByWOmKm0i5g7St62SdjAyV93",
                "code": {
                    "text": "pantoprozole (PROTONIX) infusion"
                },
                "ingredient": [
                    {
                        "itemReference": {
                            "reference": "Medication/egv60UMxZUQpgpxYEcXvLRQ3",
                            "display": "pantoprazole"
                        },
                        "strength": {
                            "numerator": {
                                "value": 80,
                                "unit": "mg",
                                "system": "http://unitsofmeasure.org",
                                "code": "mg"
                            },
                            "denominator": {
                                "value": 250,
                                "unit": "mL",
                                "system": "http://unitsofmeasure.org",
                                "code": "mL"
                            }
                        }
                    },
                    {
                        "itemReference": {
                            "reference": "Medication/etFljppYv7KjLyRuKqJ2ypw3",
                            "display": "sodium chloride 0.9 %"
                        },
                        "strength": {
                            "numerator": {
                                "value": 250,
                                "unit": "mL",
                                "system": "http://unitsofmeasure.org",
                                "code": "mL"
                            },
                            "denominator": {
                                "value": 250,
                                "unit": "mL",
                                "system": "http://unitsofmeasure.org",
                                "code": "mL"
                            }
                        }
                    }
                ]
            },
            "search": {
                "mode": "include"
            }
        },
        {
            "link": [
                {
                    "relation": "self",
                    "url": "https://appmarket.epic.com/interconnect-amcurprd-oauth/api/FHIR/R4/Encounter/eokZego-sZbeUrF.xTYkiKQ3"
                }
            ],
            "fullUrl": "https://appmarket.epic.com/interconnect-amcurprd-oauth/api/FHIR/R4/Encounter/eokZego-sZbeUrF.xTYkiKQ3",
            "resource": {
                "resourceType": "Encounter",
                "id": "eokZego-sZbeUrF.xTYkiKQ3",
                "identifier": [
                    {
                        "use": "usual",
                        "system": "urn:oid:1.2.840.114350.1.13.0.1.7.3.698084.8",
                        "value": "25683"
                    }
                ],
                "status": "in-progress",
                "class": {
                    "system": "urn:oid:1.2.840.114350.1.72.1.7.7.10.696784.13260",
                    "code": "3",
                    "display": "Admission"
                },
                "type": [
                    {
                        "coding": [
                            {
                                "system": "urn:oid:1.2.840.114350.1.13.0.1.7.10.698084.10110",
                                "code": "101",
                                "display": "Inpatient"
                            }
                        ],
                        "text": "Inpatient"
                    },
                    {
                        "coding": [
                            {
                                "system": "urn:oid:1.2.840.114350.1.13.0.1.7.10.698084.30",
                                "code": "3",
                                "display": "Hospital Encounter"
                            }
                        ],
                        "text": "Hospital Encounter"
                    },
                    {
                        "coding": [
                            {
                                "system": "urn:oid:1.2.840.114350.1.13.0.1.7.10.698084.18875",
                                "code": "1",
                                "display": "Emergency"
                            }
                        ],
                        "text": "Emergency"
                    }
                ],
                "serviceType": {
                    "coding": [
                        {
                            "system": "urn:oid:1.2.840.114350.1.13.0.1.7.10.698084.18886",
                            "code": "105",
                            "display": "Emergency Medicine"
                        }
                    ],
                    "text": "Emergency Medicine"
                },
                "priority": {
                    "coding": [
                        {
                            "system": "urn:oid:1.2.840.114350.1.13.0.1.7.10.698084.410",
                            "code": "2",
                            "display": "Emergent"
                        }
                    ],
                    "text": "Emergent"
                },
                "subject": {
                    "reference": "Patient/ewKXaSxwlpsa7WGwKzzT1lg3",
                    "display": "Zzipmaster, Charlie"
                },
                "participant": [
                    {
                        "type": [
                            {
                                "coding": [
                                    {
                                        "system": "http://hl7.org/fhir/v3/ParticipationType",
                                        "code": "ADM",
                                        "display": "admitter"
                                    }
                                ],
                                "text": "admitter"
                            }
                        ],
                        "individual": {
                            "reference": "Practitioner/eWIbfgMpwsHwUkoWBcw7uAA3",
                            "type": "Practitioner",
                            "display": "Physician Gastroenterology, MD"
                        }
                    },
                    {
                        "type": [
                            {
                                "coding": [
                                    {
                                        "system": "http://hl7.org/fhir/v3/ParticipationType",
                                        "code": "ATND",
                                        "display": "attender"
                                    }
                                ],
                                "text": "attender"
                            }
                        ],
                        "individual": {
                            "reference": "Practitioner/eWIbfgMpwsHwUkoWBcw7uAA3",
                            "type": "Practitioner",
                            "display": "Physician Gastroenterology, MD"
                        }
                    },
                    {
                        "extension": [
                            {
                                "valueCodeableConcept": {
                                    "coding": [
                                        {
                                            "system": "urn:oid:1.2.840.114350.1.13.0.1.7.4.698084.18832",
                                            "code": "17",
                                            "display": "Internal Medicine"
                                        }
                                    ],
                                    "text": "Internal Medicine"
                                },
                                "url": "http://open.epic.com/FHIR/StructureDefinition/extension/specialty"
                            }
                        ],
                        "type": [
                            {
                                "coding": [
                                    {
                                        "system": "urn:oid:1.2.840.114350.1.13.0.1.7.10.698084.18869",
                                        "code": "Consult MD",
                                        "display": "Consulting Physician"
                                    }
                                ],
                                "text": "Consulting Physician"
                            }
                        ],
                        "period": {
                            "start": "2016-04-03T13:00:00Z"
                        },
                        "individual": {
                            "reference": "Practitioner/e9s-IdXQOUVywHOVoisd6xQ3",
                            "type": "Practitioner",
                            "display": "Attending Physician Inpatient, MD"
                        }
                    },
                    {
                        "extension": [
                            {
                                "valueCodeableConcept": {
                                    "coding": [
                                        {
                                            "system": "urn:oid:1.2.840.114350.1.13.0.1.7.4.698084.18832",
                                            "code": "10",
                                            "display": "Gastroenterology"
                                        }
                                    ],
                                    "text": "Gastroenterology"
                                },
                                "url": "http://open.epic.com/FHIR/StructureDefinition/extension/specialty"
                            }
                        ],
                        "type": [
                            {
                                "coding": [
                                    {
                                        "system": "urn:oid:1.2.840.114350.1.13.0.1.7.10.698084.18869",
                                        "code": "Surgeon",
                                        "display": "Surgeon"
                                    }
                                ],
                                "text": "Surgeon"
                            }
                        ],
                        "period": {
                            "start": "2024-04-03T20:00:06Z"
                        },
                        "individual": {
                            "reference": "Practitioner/eWIbfgMpwsHwUkoWBcw7uAA3",
                            "type": "Practitioner",
                            "display": "Physician Gastroenterology, MD"
                        }
                    }
                ],
                "period": {
                    "start": "2024-04-03T12:27:08Z"
                },
                "reasonCode": [
                    {
                        "coding": [
                            {
                                "system": "http://snomed.info/sct",
                                "code": "74474003",
                                "display": "Gastrointestinal hemorrhage (disorder)"
                            }
                        ],
                        "text": "GI bleed"
                    },
                    {
                        "coding": [
                            {
                                "system": "http://snomed.info/sct",
                                "code": "74474003",
                                "display": "Gastrointestinal hemorrhage (disorder)"
                            }
                        ],
                        "text": "GI bleed"
                    },
                    {
                        "coding": [
                            {
                                "system": "urn:oid:1.2.840.114350.1.13.0.1.7.2.728286",
                                "code": "110002",
                                "display": "Abdominal Pain"
                            }
                        ],
                        "text": "Abdominal Pain"
                    }
                ],
                "diagnosis": [
                    {
                        "condition": {
                            "reference": "Condition/e5iSJX3RFtZgaui89nUGveQ3",
                            "display": "Prepyloric ulcer"
                        }
                    }
                ],
                "account": [
                    {
                        "identifier": {
                            "system": "urn:oid:1.2.840.114350.1.13.0.1.7.2.726582",
                            "value": "2642"
                        },
                        "display": "ZZIPMASTER,CHARLIE"
                    }
                ],
                "hospitalization": {
                    "extension": [
                        {
                            "valueDateTime": "2024-04-03T21:10:00Z",
                            "url": "http://open.epic.com/FHIR/StructureDefinition/extension/ip-admit-datetime"
                        }
                    ],
                    "admitSource": {
                        "coding": [
                            {
                                "system": "urn:oid:1.2.840.114350.1.13.0.1.7.10.698084.10310",
                                "code": "1",
                                "display": "Non-Healthcare Facility"
                            }
                        ],
                        "text": "Non-Healthcare Facility"
                    }
                },
                "location": [
                    {
                        "location": {
                            "reference": "Location/eweKBcq8ruM-1MzZAX-A-0uj2rDm4SMniPONiaM5VGQk3",
                            "display": "EMH Emergency"
                        },
                        "period": {
                            "start": "2024-04-03T12:27:00Z",
                            "end": "2024-04-03T12:28:00Z"
                        }
                    },
                    {
                        "location": {
                            "reference": "Location/eweKBcq8ruM-1MzZAX-A-0uj2rDm4SMniPONiaM5VGQk3",
                            "display": "EMH Emergency"
                        },
                        "period": {
                            "start": "2024-04-03T12:28:00Z",
                            "end": "2024-04-03T12:29:00Z"
                        }
                    },
                    {
                        "location": {
                            "reference": "Location/ew6bRiiIcKbo9d2tQ4dyffWV6gsk8iSoKgmSUmFU7tc83",
                            "display": "EMH GI Services"
                        },
                        "period": {
                            "start": "2024-04-03T12:29:00Z",
                            "end": "2024-04-03T21:11:00Z"
                        }
                    },
                    {
                        "location": {
                            "reference": "Location/eO-3e71xq6A5Xp7leBMrw5X-8sAl6UHIF91p7maQKFdU3",
                            "display": "EMH Medical Surgical"
                        },
                        "period": {
                            "start": "2024-04-03T21:11:00Z"
                        }
                    },
                    {
                        "location": {
                            "reference": "Location/eO-3e71xq6A5Xp7leBMrw5X-8sAl6UHIF91p7maQKFdU3",
                            "display": "EMH Medical Surgical"
                        }
                    },
                    {
                        "location": {
                            "reference": "Location/eQSOrLdbVrMRc68KBcTBG4A3",
                            "display": "Epic Hospital System"
                        }
                    },
                    {
                        "location": {
                            "reference": "Location/epBUgMvS2UD5JMROQBU8QRw3",
                            "display": "124"
                        },
                        "physicalType": {
                            "coding": [
                                {
                                    "system": "http://terminology.hl7.org/CodeSystem/location-physical-type",
                                    "code": "ro",
                                    "display": "Room"
                                }
                            ],
                            "text": "Room"
                        }
                    },
                    {
                        "location": {
                            "identifier": {
                                "system": "urn:oid:1.2.840.114350.1.13.0.1.7.2.666968",
                                "value": "188"
                            },
                            "display": "124-01"
                        },
                        "physicalType": {
                            "coding": [
                                {
                                    "system": "http://terminology.hl7.org/CodeSystem/location-physical-type",
                                    "code": "bd",
                                    "display": "Bed"
                                }
                            ],
                            "text": "Bed"
                        }
                    }
                ]
            },
            "search": {
                "mode": "include"
            }
        },
        {
            "link": [
                {
                    "relation": "self",
                    "url": "https://appmarket.epic.com/interconnect-amcurprd-oauth/api/FHIR/R4/Medication/erPDTHR6K2WA2zNgYrjQmN-S7oOQ43bGai.TAvq9IhnkvjPKOFVD6Muqr5d.m2Vay3"
                }
            ],
            "fullUrl": "https://appmarket.epic.com/interconnect-amcurprd-oauth/api/FHIR/R4/Medication/erPDTHR6K2WA2zNgYrjQmN-S7oOQ43bGai.TAvq9IhnkvjPKOFVD6Muqr5d.m2Vay3",
            "resource": {
                "resourceType": "Medication",
                "id": "erPDTHR6K2WA2zNgYrjQmN-S7oOQ43bGai.TAvq9IhnkvjPKOFVD6Muqr5d.m2Vay3",
                "code": {
                    "coding": [
                        {
                            "system": "urn:oid:2.16.840.1.113883.6.253",
                            "code": "160719"
                        },
                        {
                            "system": "urn:oid:2.16.840.1.113883.6.68",
                            "code": "50250065052024"
                        },
                        {
                            "system": "urn:oid:2.16.840.1.113883.6.162",
                            "code": "71969"
                        },
                        {
                            "system": "http://www.nlm.nih.gov/research/umls/rxnorm",
                            "code": "26225"
                        },
                        {
                            "system": "http://www.nlm.nih.gov/research/umls/rxnorm",
                            "code": "203148"
                        },
                        {
                            "system": "http://www.nlm.nih.gov/research/umls/rxnorm",
                            "code": "283504"
                        },
                        {
                            "system": "http://www.nlm.nih.gov/research/umls/rxnorm",
                            "code": "1314133"
                        },
                        {
                            "system": "http://www.nlm.nih.gov/research/umls/rxnorm",
                            "code": "1740467"
                        },
                        {
                            "system": "http://www.nlm.nih.gov/research/umls/rxnorm",
                            "code": "2119176"
                        }
                    ],
                    "text": "ondansetron (ZOFRAN) 2 mg/mL injection"
                },
                "form": {
                    "coding": [
                        {
                            "system": "urn:oid:1.2.840.114350.1.13.0.1.7.4.698288.310",
                            "code": "SOLN",
                            "display": "solution"
                        }
                    ],
                    "text": "solution"
                },
                "ingredient": [
                    {
                        "itemCodeableConcept": {
                            "coding": [
                                {
                                    "system": "urn:oid:2.16.840.1.113883.6.253",
                                    "code": "160719"
                                },
                                {
                                    "system": "urn:oid:2.16.840.1.113883.6.68",
                                    "code": "50250065052024"
                                },
                                {
                                    "system": "urn:oid:2.16.840.1.113883.6.162",
                                    "code": "71969"
                                },
                                {
                                    "system": "http://www.nlm.nih.gov/research/umls/rxnorm",
                                    "code": "26225"
                                },
                                {
                                    "system": "http://www.nlm.nih.gov/research/umls/rxnorm",
                                    "code": "203148"
                                },
                                {
                                    "system": "http://www.nlm.nih.gov/research/umls/rxnorm",
                                    "code": "283504"
                                },
                                {
                                    "system": "http://www.nlm.nih.gov/research/umls/rxnorm",
                                    "code": "1314133"
                                },
                                {
                                    "system": "http://www.nlm.nih.gov/research/umls/rxnorm",
                                    "code": "1740467"
                                },
                                {
                                    "system": "http://www.nlm.nih.gov/research/umls/rxnorm",
                                    "code": "2119176"
                                }
                            ],
                            "text": "ondansetron (ZOFRAN) 2 mg/mL injection"
                        },
                        "strength": {
                            "numerator": {
                                "value": 4,
                                "unit": "MG/2ML"
                            },
                            "denominator": {
                                "value": 4,
                                "unit": "MG/2ML"
                            }
                        }
                    }
                ]
            },
            "search": {
                "mode": "include"
            }
        },
        {
            "link": [
                {
                    "relation": "self",
                    "url": "https://appmarket.epic.com/interconnect-amcurprd-oauth/api/FHIR/R4/Medication/erPDTHR6K2WA2zNgYrjQmN8jurF95Dim-hPfNFwz2BqKAzFEYP65qK3THg8dSP2aS3"
                }
            ],
            "fullUrl": "https://appmarket.epic.com/interconnect-amcurprd-oauth/api/FHIR/R4/Medication/erPDTHR6K2WA2zNgYrjQmN8jurF95Dim-hPfNFwz2BqKAzFEYP65qK3THg8dSP2aS3",
            "resource": {
                "resourceType": "Medication",
                "id": "erPDTHR6K2WA2zNgYrjQmN8jurF95Dim-hPfNFwz2BqKAzFEYP65qK3THg8dSP2aS3",
                "code": {
                    "coding": [
                        {
                            "system": "urn:oid:2.16.840.1.113883.6.253",
                            "code": "160719"
                        },
                        {
                            "system": "urn:oid:2.16.840.1.113883.6.68",
                            "code": "50250065052024"
                        },
                        {
                            "system": "urn:oid:2.16.840.1.113883.6.162",
                            "code": "71969"
                        },
                        {
                            "system": "http://www.nlm.nih.gov/research/umls/rxnorm",
                            "code": "26225"
                        },
                        {
                            "system": "http://www.nlm.nih.gov/research/umls/rxnorm",
                            "code": "203148"
                        },
                        {
                            "system": "http://www.nlm.nih.gov/research/umls/rxnorm",
                            "code": "283504"
                        },
                        {
                            "system": "http://www.nlm.nih.gov/research/umls/rxnorm",
                            "code": "1314133"
                        },
                        {
                            "system": "http://www.nlm.nih.gov/research/umls/rxnorm",
                            "code": "1740467"
                        },
                        {
                            "system": "http://www.nlm.nih.gov/research/umls/rxnorm",
                            "code": "2119176"
                        }
                    ],
                    "text": "ondansetron (ZOFRAN) 2 mg/mL injection"
                },
                "form": {
                    "coding": [
                        {
                            "system": "urn:oid:1.2.840.114350.1.13.0.1.7.4.698288.310",
                            "code": "SOLN",
                            "display": "solution"
                        }
                    ],
                    "text": "solution"
                },
                "ingredient": [
                    {
                        "itemCodeableConcept": {
                            "coding": [
                                {
                                    "system": "urn:oid:2.16.840.1.113883.6.253",
                                    "code": "160719"
                                },
                                {
                                    "system": "urn:oid:2.16.840.1.113883.6.68",
                                    "code": "50250065052024"
                                },
                                {
                                    "system": "urn:oid:2.16.840.1.113883.6.162",
                                    "code": "71969"
                                },
                                {
                                    "system": "http://www.nlm.nih.gov/research/umls/rxnorm",
                                    "code": "26225"
                                },
                                {
                                    "system": "http://www.nlm.nih.gov/research/umls/rxnorm",
                                    "code": "203148"
                                },
                                {
                                    "system": "http://www.nlm.nih.gov/research/umls/rxnorm",
                                    "code": "283504"
                                },
                                {
                                    "system": "http://www.nlm.nih.gov/research/umls/rxnorm",
                                    "code": "1314133"
                                },
                                {
                                    "system": "http://www.nlm.nih.gov/research/umls/rxnorm",
                                    "code": "1740467"
                                },
                                {
                                    "system": "http://www.nlm.nih.gov/research/umls/rxnorm",
                                    "code": "2119176"
                                }
                            ],
                            "text": "ondansetron (ZOFRAN) 2 mg/mL injection"
                        },
                        "strength": {
                            "numerator": {
                                "value": 4,
                                "unit": "MG/2ML"
                            },
                            "denominator": {
                                "value": 4,
                                "unit": "MG/2ML"
                            }
                        }
                    }
                ]
            },
            "search": {
                "mode": "include"
            }
        },
        {
            "link": [
                {
                    "relation": "self",
                    "url": "https://appmarket.epic.com/interconnect-amcurprd-oauth/api/FHIR/R4/Patient/ewKXaSxwlpsa7WGwKzzT1lg3"
                }
            ],
            "fullUrl": "https://appmarket.epic.com/interconnect-amcurprd-oauth/api/FHIR/R4/Patient/ewKXaSxwlpsa7WGwKzzT1lg3",
            "resource": {
                "resourceType": "Patient",
                "id": "ewKXaSxwlpsa7WGwKzzT1lg3",
                "extension": [
                    {
                        "extension": [
                            {
                                "valueCoding": {
                                    "system": "http://terminology.hl7.org/CodeSystem/v3-NullFlavor",
                                    "code": "UNK",
                                    "display": "Unknown"
                                },
                                "url": "ombCategory"
                            },
                            {
                                "valueString": "Unknown",
                                "url": "text"
                            }
                        ],
                        "url": "http://hl7.org/fhir/us/core/StructureDefinition/us-core-race"
                    },
                    {
                        "extension": [
                            {
                                "valueString": "Unknown",
                                "url": "text"
                            }
                        ],
                        "url": "http://hl7.org/fhir/us/core/StructureDefinition/us-core-ethnicity"
                    },
                    {
                        "valueCodeableConcept": {
                            "coding": [
                                {
                                    "system": "urn:oid:1.2.840.114350.1.13.0.1.7.10.698084.130.657370.19999000",
                                    "code": "male",
                                    "display": "male"
                                }
                            ]
                        },
                        "url": "http://open.epic.com/FHIR/StructureDefinition/extension/legal-sex"
                    },
                    {
                        "valueCodeableConcept": {
                            "coding": [
                                {
                                    "system": "urn:oid:1.2.840.114350.1.13.0.1.7.10.698084.130.657370.19999000",
                                    "code": "male",
                                    "display": "male"
                                }
                            ]
                        },
                        "url": "http://open.epic.com/FHIR/StructureDefinition/extension/sex-for-clinical-use"
                    },
                    {
                        "valueCode": "M",
                        "url": "http://hl7.org/fhir/us/core/StructureDefinition/us-core-birthsex"
                    }
                ],
                "identifier": [
                    {
                        "use": "usual",
                        "system": "urn:oid:2.16.840.1.113883.4.1",
                        "value": "557-61-5233"
                    },
                    {
                        "use": "usual",
                        "type": {
                            "text": "CEID"
                        },
                        "system": "urn:epic:apporchard.curprod",
                        "value": "AO1ZGLP55RDTHSK"
                    },
                    {
                        "use": "usual",
                        "type": {
                            "text": "EPIC"
                        },
                        "system": "urn:oid:1.2.840.114350.1.1",
                        "value": "E29188"
                    },
                    {
                        "use": "usual",
                        "type": {
                            "text": "EXTERNAL"
                        },
                        "system": "urn:oid:1.2.840.114350.1.13.0.1.7.2.698084",
                        "value": "Z5841"
                    },
                    {
                        "use": "usual",
                        "type": {
                            "text": "FHIR"
                        },
                        "system": "http://open.epic.com/FHIR/StructureDefinition/patient-dstu2-fhir-id",
                        "value": "T63sVGQUKbn5CEPWdZdKxWeIl0-l3BJcXrBmOak3qulwB"
                    },
                    {
                        "use": "usual",
                        "type": {
                            "text": "FHIR STU3"
                        },
                        "system": "http://open.epic.com/FHIR/StructureDefinition/patient-fhir-id",
                        "value": "ewKXaSxwlpsa7WGwKzzT1lg3"
                    },
                    {
                        "use": "usual",
                        "type": {
                            "text": "INTERNAL"
                        },
                        "system": "urn:oid:1.2.840.114350.1.13.0.1.7.2.698084",
                        "value": "     Z5841"
                    },
                    {
                        "use": "usual",
                        "type": {
                            "text": "MRN"
                        },
                        "system": "urn:oid:1.2.840.114350.1.13.0.1.7.5.737384.14",
                        "value": "2028811"
                    }
                ],
                "active": true,
                "name": [
                    {
                        "use": "official",
                        "text": "Charlie Zzipmaster",
                        "family": "Zzipmaster",
                        "given": [
                            "Charlie"
                        ]
                    },
                    {
                        "use": "usual",
                        "text": "Charlie Zzipmaster",
                        "family": "Zzipmaster",
                        "given": [
                            "Charlie"
                        ]
                    }
                ],
                "telecom": [
                    {
                        "system": "phone",
                        "value": "608-889-4465",
                        "use": "home"
                    }
                ],
                "gender": "male",
                "birthDate": "1964-04-03",
                "deceasedBoolean": false,
                "managingOrganization": {
                    "reference": "Organization/enRyWnSP963FYDpoks4NHOA3",
                    "display": "Epic Hospital System"
                }
            },
            "search": {
                "mode": "include"
            }
        },
        {
            "link": [
                {
                    "relation": "self",
                    "url": "https://appmarket.epic.com/interconnect-amcurprd-oauth/api/FHIR/R4/Medication/ewc0wjYb6LToCpRQxP-R0CF94pSVGj9tOtxa079Db4lp5oI-MLqOjMsL7D0aMByZ43"
                }
            ],
            "fullUrl": "https://appmarket.epic.com/interconnect-amcurprd-oauth/api/FHIR/R4/Medication/ewc0wjYb6LToCpRQxP-R0CF94pSVGj9tOtxa079Db4lp5oI-MLqOjMsL7D0aMByZ43",
            "resource": {
                "resourceType": "Medication",
                "id": "ewc0wjYb6LToCpRQxP-R0CF94pSVGj9tOtxa079Db4lp5oI-MLqOjMsL7D0aMByZ43",
                "code": {
                    "coding": [
                        {
                            "system": "urn:oid:2.16.840.1.113883.6.253",
                            "code": "47677"
                        },
                        {
                            "system": "urn:oid:2.16.840.1.113883.6.68",
                            "code": "37600040000110"
                        },
                        {
                            "system": "urn:oid:2.16.840.1.113883.6.162",
                            "code": "17534"
                        },
                        {
                            "system": "http://www.nlm.nih.gov/research/umls/rxnorm",
                            "code": "5487"
                        },
                        {
                            "system": "http://www.nlm.nih.gov/research/umls/rxnorm",
                            "code": "199903"
                        }
                    ],
                    "text": "hydroCHLOROthiazide (MICROZIDE) capsule 12.5 mg"
                },
                "form": {
                    "coding": [
                        {
                            "system": "urn:oid:1.2.840.114350.1.13.0.1.7.4.698288.310",
                            "code": "CAPS",
                            "display": "capsule"
                        }
                    ],
                    "text": "capsule"
                },
                "ingredient": [
                    {
                        "itemCodeableConcept": {
                            "coding": [
                                {
                                    "system": "urn:oid:2.16.840.1.113883.6.253",
                                    "code": "47677"
                                },
                                {
                                    "system": "urn:oid:2.16.840.1.113883.6.68",
                                    "code": "37600040000110"
                                },
                                {
                                    "system": "urn:oid:2.16.840.1.113883.6.162",
                                    "code": "17534"
                                },
                                {
                                    "system": "http://www.nlm.nih.gov/research/umls/rxnorm",
                                    "code": "5487"
                                },
                                {
                                    "system": "http://www.nlm.nih.gov/research/umls/rxnorm",
                                    "code": "199903"
                                }
                            ],
                            "text": "hydroCHLOROthiazide (MICROZIDE) capsule 12.5 mg"
                        },
                        "strength": {
                            "numerator": {
                                "value": 12.5,
                                "unit": "MG",
                                "system": "http://unitsofmeasure.org",
                                "code": "mg"
                            },
                            "denominator": {
                                "value": 12.5,
                                "unit": "MG",
                                "system": "http://unitsofmeasure.org",
                                "code": "mg"
                            }
                        }
                    }
                ]
            },
            "search": {
                "mode": "include"
            }
        },
        {
            "link": [
                {
                    "relation": "self",
                    "url": "https://appmarket.epic.com/interconnect-amcurprd-oauth/api/FHIR/R4/Medication/exHanMETCXgFAY3EgA6vg-zU5GAnPwkxhkRG4noe6ZY7gfmrezLJmcwnGMi5Gp37e3"
                }
            ],
            "fullUrl": "https://appmarket.epic.com/interconnect-amcurprd-oauth/api/FHIR/R4/Medication/exHanMETCXgFAY3EgA6vg-zU5GAnPwkxhkRG4noe6ZY7gfmrezLJmcwnGMi5Gp37e3",
            "resource": {
                "resourceType": "Medication",
                "id": "exHanMETCXgFAY3EgA6vg-zU5GAnPwkxhkRG4noe6ZY7gfmrezLJmcwnGMi5Gp37e3",
                "code": {
                    "coding": [
                        {
                            "system": "urn:oid:2.16.840.1.113883.6.68",
                            "code": "79750010002021"
                        },
                        {
                            "system": "urn:oid:2.16.840.1.113883.6.253",
                            "code": "64888"
                        },
                        {
                            "system": "urn:oid:2.16.840.1.113883.6.162",
                            "code": "28522"
                        },
                        {
                            "system": "http://www.nlm.nih.gov/research/umls/rxnorm",
                            "code": "9863"
                        },
                        {
                            "system": "http://www.nlm.nih.gov/research/umls/rxnorm",
                            "code": "313002"
                        },
                        {
                            "system": "http://www.nlm.nih.gov/research/umls/rxnorm",
                            "code": "747260"
                        },
                        {
                            "system": "http://www.nlm.nih.gov/research/umls/rxnorm",
                            "code": "859203"
                        },
                        {
                            "system": "http://www.nlm.nih.gov/research/umls/rxnorm",
                            "code": "1807627"
                        },
                        {
                            "system": "http://www.nlm.nih.gov/research/umls/rxnorm",
                            "code": "1807630"
                        },
                        {
                            "system": "http://www.nlm.nih.gov/research/umls/rxnorm",
                            "code": "1807631"
                        },
                        {
                            "system": "http://www.nlm.nih.gov/research/umls/rxnorm",
                            "code": "1807632"
                        },
                        {
                            "system": "http://www.nlm.nih.gov/research/umls/rxnorm",
                            "code": "1807633"
                        },
                        {
                            "system": "http://www.nlm.nih.gov/research/umls/rxnorm",
                            "code": "1807634"
                        },
                        {
                            "system": "http://www.nlm.nih.gov/research/umls/rxnorm",
                            "code": "1807639"
                        }
                    ],
                    "text": "sodium chloride 0.9 % bolus"
                },
                "form": {
                    "coding": [
                        {
                            "system": "urn:oid:1.2.840.114350.1.13.0.1.7.4.698288.310",
                            "code": "SOLN",
                            "display": "solution"
                        }
                    ],
                    "text": "solution"
                },
                "ingredient": [
                    {
                        "itemCodeableConcept": {
                            "coding": [
                                {
                                    "system": "urn:oid:2.16.840.1.113883.6.68",
                                    "code": "79750010002021"
                                },
                                {
                                    "system": "urn:oid:2.16.840.1.113883.6.253",
                                    "code": "64888"
                                },
                                {
                                    "system": "urn:oid:2.16.840.1.113883.6.162",
                                    "code": "28522"
                                },
                                {
                                    "system": "http://www.nlm.nih.gov/research/umls/rxnorm",
                                    "code": "9863"
                                },
                                {
                                    "system": "http://www.nlm.nih.gov/research/umls/rxnorm",
                                    "code": "313002"
                                },
                                {
                                    "system": "http://www.nlm.nih.gov/research/umls/rxnorm",
                                    "code": "747260"
                                },
                                {
                                    "system": "http://www.nlm.nih.gov/research/umls/rxnorm",
                                    "code": "859203"
                                },
                                {
                                    "system": "http://www.nlm.nih.gov/research/umls/rxnorm",
                                    "code": "1807627"
                                },
                                {
                                    "system": "http://www.nlm.nih.gov/research/umls/rxnorm",
                                    "code": "1807630"
                                },
                                {
                                    "system": "http://www.nlm.nih.gov/research/umls/rxnorm",
                                    "code": "1807631"
                                },
                                {
                                    "system": "http://www.nlm.nih.gov/research/umls/rxnorm",
                                    "code": "1807632"
                                },
                                {
                                    "system": "http://www.nlm.nih.gov/research/umls/rxnorm",
                                    "code": "1807633"
                                },
                                {
                                    "system": "http://www.nlm.nih.gov/research/umls/rxnorm",
                                    "code": "1807634"
                                },
                                {
                                    "system": "http://www.nlm.nih.gov/research/umls/rxnorm",
                                    "code": "1807639"
                                }
                            ],
                            "text": "sodium chloride 0.9 % bolus"
                        },
                        "strength": {
                            "numerator": {
                                "value": 0.9,
                                "system": "http://unitsofmeasure.org",
                                "code": "%"
                            },
                            "denominator": {
                                "value": 0.9,
                                "system": "http://unitsofmeasure.org",
                                "code": "%"
                            }
                        }
                    }
                ]
            },
            "search": {
                "mode": "include"
            }
        }
    ]
}