{
    "resourceType": "Bundle",
    "type": "searchset",
    "total": 2,
    "link": [
        {
            "relation": "self",
            "url": "https://appmarket.epic.com/interconnect-amcurprd-oauth/api/FHIR/R4/MedicationRequest?_include=MedicationRequest:medicationReference&_include=MedicationRequest:encounter&_include=MedicationRequest:subject&_format=json&patient=euOFfK.JIxu9ZTVa0c.RcAw3"
        }
    ],
    "entry": [
        {
            "link": [
                {
                    "relation": "self",
                    "url": "https://appmarket.epic.com/interconnect-amcurprd-oauth/api/FHIR/R4/MedicationRequest/e7a7X93ipVm1L6eUglx04mA3"
                }
            ],
            "fullUrl": "https://appmarket.epic.com/interconnect-amcurprd-oauth/api/FHIR/R4/MedicationRequest/e7a7X93ipVm1L6eUglx04mA3",
            "resource": {
                "resourceType": "MedicationRequest",
                "id": "e7a7X93ipVm1L6eUglx04mA3",
                "identifier": [
                    {
                        "use": "usual",
                        "system": "urn:oid:1.2.840.114350.1.13.0.1.7.2.798268",
                        "value": "895341"
                    }
                ],
                "status": "completed",
                "intent": "order",
                "category": [
                    {
                        "coding": [
                            {
                                "system": "http://terminology.hl7.org/CodeSystem/medicationrequest-category",
                                "code": "outpatient",
                                "display": "Outpatient"
                            }
                        ],
                        "text": "Outpatient"
                    }
                ],
                "medicationReference": {
                    "reference": "Medication/ejXOShkQKsp85JuEP.1ZWTBasBaesMtSqbM9bdx-JkZT-ttl-yGbyVNdEyfXKYSyI3",
                    "display": "iohexol (OMNIPAQUE) 300 mg/mL"
                },
                "subject": {
                    "reference": "Patient/euOFfK.JIxu9ZTVa0c.RcAw3",
                    "display": "Radiant, Bob"
                },
                "encounter": {
                    "reference": "Encounter/eXklLsrKklzh91v16R3S2jg3",
                    "identifier": {
                        "use": "usual",
                        "system": "urn:oid:1.2.840.114350.1.13.0.1.7.3.698084.8",
                        "value": "12066"
                    },
                    "display": "Hospital Encounter"
                },
                "authoredOn": "2013-07-20T01:49:11Z",
                "requester": {
                    "reference": "Practitioner/ePwlHXYFFHLNL9so.ugVNFQ3",
                    "type": "Practitioner",
                    "display": "Radiologist Radiology, MD"
                },
                "recorder": {
                    "reference": "Practitioner/efjdOHomcPctcCffcE015Tg3",
                    "type": "Practitioner",
                    "display": "Technologist Radiology, RT"
                },
                "courseOfTherapyType": {
                    "coding": [
                        {
                            "system": "http://terminology.hl7.org/CodeSystem/medicationrequest-course-of-therapy",
                            "code": "acute",
                            "display": "Short course (acute) therapy"
                        }
                    ],
                    "text": "Short course (acute) therapy"
                },
                "dosageInstruction": [
                    {
                        "text": "100 mL, Intravenous, Once in imaging, contrast, Starting on Fri 7/19/13 at 2046, For 1 dose",
                        "timing": {
                            "repeat": {
                                "boundsPeriod": {
                                    "start": "2013-07-20T01:46:29Z",
                                    "end": "2013-07-20T01:51:00Z"
                                },
                                "count": 1,
                                "countMax": 1,
                                "frequency": 1,
                                "period": 1,
                                "periodUnit": "d"
                            },
                            "code": {
                                "text": "Imaging use only - as needed"
                            }
                        },
                        "asNeededBoolean": true,
                        "route": {
                            "coding": [
                                {
                                    "system": "http://snomed.info/sct",
                                    "code": "418114005",
                                    "display": "Intravenous central route (qualifier value)"
                                },
                                {
                                    "system": "urn:oid:1.2.840.114350.1.13.0.1.7.4.798268.7025",
                                    "code": "11",
                                    "display": "Intravenous"
                                }
                            ],
                            "text": "Intravenous"
                        },
                        "doseAndRate": [
                            {
                                "type": {
                                    "coding": [
                                        {
                                            "system": "http://epic.com/CodeSystem/dose-rate-type",
                                            "code": "calculated",
                                            "display": "calculated"
                                        }
                                    ],
                                    "text": "calculated"
                                },
                                "doseQuantity": {
                                    "value": 100,
                                    "unit": "mL",
                                    "system": "http://unitsofmeasure.org",
                                    "code": "mL"
                                }
                            },
                            {
                                "type": {
                                    "coding": [
                                        {
                                            "system": "http://epic.com/CodeSystem/dose-rate-type",
                                            "code": "admin-amount",
                                            "display": "admin-amount"
                                        }
                                    ],
                                    "text": "admin-amount"
                                },
                                "doseQuantity": {
                                    "value": 100,
                                    "unit": "mL",
                                    "system": "http://unitsofmeasure.org",
                                    "code": "mL"
                                }
                            },
                            {
                                "type": {
                                    "coding": [
                                        {
                                            "system": "http://epic.com/CodeSystem/dose-rate-type",
                                            "code": "ordered",
                                            "display": "ordered"
                                        }
                                    ],
                                    "text": "ordered"
                                },
                                "doseQuantity": {
                                    "value": 100,
                                    "unit": "mL",
                                    "system": "http://unitsofmeasure.org",
                                    "code": "mL"
                                }
                            }
                        ]
                    }
                ]
            },
            "search": {
                "mode": "match"
            }
        },
        {
            "link": [
                {
                    "relation": "self",
                    "url": "https://appmarket.epic.com/interconnect-amcurprd-oauth/api/FHIR/R4/MedicationRequest/ew74cnyCMdZnAIxSUYK36Kg3"
                }
            ],
            "fullUrl": "https://appmarket.epic.com/interconnect-amcurprd-oauth/api/FHIR/R4/MedicationRequest/ew74cnyCMdZnAIxSUYK36Kg3",
            "resource": {
                "resourceType": "MedicationRequest",
                "id": "ew74cnyCMdZnAIxSUYK36Kg3",
                "identifier": [
                    {
                        "use": "usual",
                        "system": "urn:oid:1.2.840.114350.1.13.0.1.7.2.798268",
                        "value": "895338"
                    }
                ],
                "status": "completed",
                "intent": "order",
                "category": [
                    {
                        "coding": [
                            {
                                "system": "http://terminology.hl7.org/CodeSystem/medicationrequest-category",
                                "code": "outpatient",
                                "display": "Outpatient"
                            }
                        ],
                        "text": "Outpatient"
                    }
                ],
                "medicationReference": {
                    "reference": "Medication/ejXOShkQKsp85JuEP.1ZWTK0YZEj0y.RLlx933XgWP7HrytV6f5S5OiWTgD4F7VE33",
                    "display": "iohexol (OMNIPAQUE) 300 mg/mL"
                },
                "subject": {
                    "reference": "Patient/euOFfK.JIxu9ZTVa0c.RcAw3",
                    "display": "Radiant, Bob"
                },
                "encounter": {
                    "reference": "Encounter/eY.C86qbk08maF-oPYuvzug3",
                    "identifier": {
                        "use": "usual",
                        "system": "urn:oid:1.2.840.114350.1.13.0.1.7.3.698084.8",
                        "value": "12065"
                    },
                    "display": "Hospital Encounter"
                },
                "authoredOn": "2013-07-20T19:12:46Z",
                "requester": {
                    "reference": "Practitioner/ePwlHXYFFHLNL9so.ugVNFQ3",
                    "type": "Practitioner",
                    "display": "Radiologist Radiology, MD"
                },
                "recorder": {
                    "reference": "Practitioner/efjdOHomcPctcCffcE015Tg3",
                    "type": "Practitioner",
                    "display": "Technologist Radiology, RT"
                },
                "courseOfTherapyType": {
                    "coding": [
                        {
                            "system": "http://terminology.hl7.org/CodeSystem/medicationrequest-course-of-therapy",
                            "code": "acute",
                            "display": "Short course (acute) therapy"
                        }
                    ],
                    "text": "Short course (acute) therapy"
                },
                "dosageInstruction": [
                    {
                        "text": "100 mL, Intravenous, Once in imaging, contrast, Starting on Sat 7/20/13 at 1411, For 1 dose",
                        "timing": {
                            "repeat": {
                                "boundsPeriod": {
                                    "start": "2013-07-20T19:11:42Z",
                                    "end": "2013-07-20T19:14:00Z"
                                },
                                "count": 1,
                                "countMax": 1,
                                "frequency": 1,
                                "period": 1,
                                "periodUnit": "d"
                            },
                            "code": {
                                "text": "Imaging use only - as needed"
                            }
                        },
                        "asNeededBoolean": true,
                        "route": {
                            "coding": [
                                {
                                    "system": "http://snomed.info/sct",
                                    "code": "418114005",
                                    "display": "Intravenous central route (qualifier value)"
                                },
                                {
                                    "system": "urn:oid:1.2.840.114350.1.13.0.1.7.4.798268.7025",
                                    "code": "11",
                                    "display": "Intravenous"
                                }
                            ],
                            "text": "Intravenous"
                        },
                        "doseAndRate": [
                            {
                                "type": {
                                    "coding": [
                                        {
                                            "system": "http://epic.com/CodeSystem/dose-rate-type",
                                            "code": "calculated",
                                            "display": "calculated"
                                        }
                                    ],
                                    "text": "calculated"
                                },
                                "doseQuantity": {
                                    "value": 100,
                                    "unit": "mL",
                                    "system": "http://unitsofmeasure.org",
                                    "code": "mL"
                                }
                            },
                            {
                                "type": {
                                    "coding": [
                                        {
                                            "system": "http://epic.com/CodeSystem/dose-rate-type",
                                            "code": "admin-amount",
                                            "display": "admin-amount"
                                        }
                                    ],
                                    "text": "admin-amount"
                                },
                                "doseQuantity": {
                                    "value": 100,
                                    "unit": "mL",
                                    "system": "http://unitsofmeasure.org",
                                    "code": "mL"
                                }
                            },
                            {
                                "type": {
                                    "coding": [
                                        {
                                            "system": "http://epic.com/CodeSystem/dose-rate-type",
                                            "code": "ordered",
                                            "display": "ordered"
                                        }
                                    ],
                                    "text": "ordered"
                                },
                                "doseQuantity": {
                                    "value": 100,
                                    "unit": "mL",
                                    "system": "http://unitsofmeasure.org",
                                    "code": "mL"
                                }
                            }
                        ]
                    }
                ]
            },
            "search": {
                "mode": "match"
            }
        },
        {
            "link": [
                {
                    "relation": "self",
                    "url": "https://appmarket.epic.com/interconnect-amcurprd-oauth/api/FHIR/R4/Encounter/eXklLsrKklzh91v16R3S2jg3"
                }
            ],
            "fullUrl": "https://appmarket.epic.com/interconnect-amcurprd-oauth/api/FHIR/R4/Encounter/eXklLsrKklzh91v16R3S2jg3",
            "resource": {
                "resourceType": "Encounter",
                "id": "eXklLsrKklzh91v16R3S2jg3",
                "identifier": [
                    {
                        "use": "usual",
                        "system": "urn:oid:1.2.840.114350.1.13.0.1.7.3.698084.8",
                        "value": "12066"
                    }
                ],
                "status": "in-progress",
                "class": {
                    "system": "urn:oid:1.2.840.114350.1.72.1.7.7.10.696784.13260",
                    "code": "4",
                    "display": "HOV"
                },
                "type": [
                    {
                        "coding": [
                            {
                                "system": "urn:oid:1.2.840.114350.1.13.0.1.7.10.698084.10110",
                                "code": "102",
                                "display": "Outpatient"
                            }
                        ],
                        "text": "Outpatient"
                    },
                    {
                        "coding": [
                            {
                                "system": "urn:oid:1.2.840.114350.1.13.0.1.7.10.698084.30",
                                "code": "3",
                                "display": "Hospital Encounter"
                            }
                        ],
                        "text": "Hospital Encounter"
                    },
                    {
                        "coding": [
                            {
                                "system": "urn:oid:1.2.840.114350.1.13.0.1.7.10.698084.18875",
                                "code": "3",
                                "display": "Elective"
                            }
                        ],
                        "text": "Elective"
                    }
                ],
                "subject": {
                    "reference": "Patient/euOFfK.JIxu9ZTVa0c.RcAw3",
                    "display": "Radiant, Bob"
                },
                "participant": [
                    {
                        "type": [
                            {
                                "coding": [
                                    {
                                        "system": "http://hl7.org/fhir/v3/ParticipationType",
                                        "code": "REF",
                                        "display": "referrer"
                                    }
                                ],
                                "text": "referrer"
                            }
                        ],
                        "individual": {
                            "reference": "Practitioner/eM5CWtq15N0WJeuCet5bJlQ3",
                            "type": "Practitioner",
                            "display": "Physician Family Medicine, MD"
                        }
                    },
                    {
                        "period": {
                            "start": "2013-07-20T13:00:00Z",
                            "end": "2013-07-20T13:30:00Z"
                        },
                        "individual": {
                            "display": "EMH CT 1"
                        }
                    }
                ],
                "period": {
                    "start": "2013-07-20T13:00:00Z"
                },
                "account": [
                    {
                        "identifier": {
                            "system": "urn:oid:1.2.840.114350.1.13.0.1.7.2.726582",
                            "value": "765"
                        },
                        "display": "RADIANT,BOB"
                    }
                ],
                "hospitalization": {
                    "extension": [
                        {
                            "valueDateTime": "2013-07-20T13:00:00Z",
                            "url": "http://open.epic.com/FHIR/StructureDefinition/extension/observation-datetime"
                        }
                    ],
                    "admitSource": {
                        "coding": [
                            {
                                "system": "urn:oid:1.2.840.114350.1.13.0.1.7.10.698084.10310",
                                "code": "2",
                                "display": "Physician or Clinic Office"
                            }
                        ],
                        "text": "Physician or Clinic Office"
                    },
                    "dischargeDisposition": {
                        "coding": [
                            {
                                "system": "urn:oid:1.2.840.114350.1.13.0.1.7.10.698084.18888",
                                "code": "1",
                                "display": "Home or Self Care"
                            }
                        ],
                        "text": "Home or Self Care"
                    }
                },
                "location": [
                    {
                        "location": {
                            "reference": "Location/e4OG8BMMoOhcLXWmFuBvm8NlbjHAXxL7ZhxNIjoGyor43",
                            "display": "EMH CT Imaging"
                        }
                    },
                    {
                        "location": {
                            "reference": "Location/e4OG8BMMoOhcLXWmFuBvm8NlbjHAXxL7ZhxNIjoGyor43",
                            "display": "EMH CT Imaging"
                        }
                    },
                    {
                        "location": {
                            "reference": "Location/eQSOrLdbVrMRc68KBcTBG4A3",
                            "display": "Epic Hospital System"
                        }
                    }
                ]
            },
            "search": {
                "mode": "include"
            }
        },
        {
            "link": [
                {
                    "relation": "self",
                    "url": "https://appmarket.epic.com/interconnect-amcurprd-oauth/api/FHIR/R4/Encounter/eY.C86qbk08maF-oPYuvzug3"
                }
            ],
            "fullUrl": "https://appmarket.epic.com/interconnect-amcurprd-oauth/api/FHIR/R4/Encounter/eY.C86qbk08maF-oPYuvzug3",
            "resource": {
                "resourceType": "Encounter",
                "id": "eY.C86qbk08maF-oPYuvzug3",
                "identifier": [
                    {
                        "use": "usual",
                        "system": "urn:oid:1.2.840.114350.1.13.0.1.7.3.698084.8",
                        "value": "12065"
                    }
                ],
                "status": "in-progress",
                "class": {
                    "system": "urn:oid:1.2.840.114350.1.72.1.7.7.10.696784.13260",
                    "code": "4",
                    "display": "HOV"
                },
                "type": [
                    {
                        "coding": [
                            {
                                "system": "urn:oid:1.2.840.114350.1.13.0.1.7.10.698084.10110",
                                "code": "102",
                                "display": "Outpatient"
                            }
                        ],
                        "text": "Outpatient"
                    },
                    {
                        "coding": [
                            {
                                "system": "urn:oid:1.2.840.114350.1.13.0.1.7.10.698084.30",
                                "code": "3",
                                "display": "Hospital Encounter"
                            }
                        ],
                        "text": "Hospital Encounter"
                    }
                ],
                "subject": {
                    "reference": "Patient/euOFfK.JIxu9ZTVa0c.RcAw3",
                    "display": "Radiant, Bob"
                },
                "participant": [
                    {
                        "type": [
                            {
                                "coding": [
                                    {
                                        "system": "http://hl7.org/fhir/v3/ParticipationType",
                                        "code": "REF",
                                        "display": "referrer"
                                    }
                                ],
                                "text": "referrer"
                            }
                        ],
                        "individual": {
                            "reference": "Practitioner/eM5CWtq15N0WJeuCet5bJlQ3",
                            "type": "Practitioner",
                            "display": "Physician Family Medicine, MD"
                        }
                    },
                    {
                        "period": {
                            "start": "2013-07-20T13:30:00Z",
                            "end": "2013-07-20T14:00:00Z"
                        },
                        "individual": {
                            "display": "EMH CT 1"
                        }
                    }
                ],
                "period": {
                    "start": "2013-07-20T13:30:00Z"
                },
                "account": [
                    {
                        "identifier": {
                            "system": "urn:oid:1.2.840.114350.1.13.0.1.7.2.726582",
                            "value": "765"
                        },
                        "display": "RADIANT,BOB"
                    }
                ],
                "hospitalization": {
                    "extension": [
                        {
                            "valueDateTime": "2013-07-20T13:30:00Z",
                            "url": "http://open.epic.com/FHIR/StructureDefinition/extension/observation-datetime"
                        }
                    ]
                },
                "location": [
                    {
                        "location": {
                            "reference": "Location/e4OG8BMMoOhcLXWmFuBvm8NlbjHAXxL7ZhxNIjoGyor43",
                            "display": "EMH CT Imaging"
                        }
                    },
                    {
                        "location": {
                            "reference": "Location/e4OG8BMMoOhcLXWmFuBvm8NlbjHAXxL7ZhxNIjoGyor43",
                            "display": "EMH CT Imaging"
                        }
                    },
                    {
                        "location": {
                            "reference": "Location/eQSOrLdbVrMRc68KBcTBG4A3",
                            "display": "Epic Hospital System"
                        }
                    }
                ]
            },
            "search": {
                "mode": "include"
            }
        },
        {
            "link": [
                {
                    "relation": "self",
                    "url": "https://appmarket.epic.com/interconnect-amcurprd-oauth/api/FHIR/R4/Medication/ejXOShkQKsp85JuEP.1ZWTBasBaesMtSqbM9bdx-JkZT-ttl-yGbyVNdEyfXKYSyI3"
                }
            ],
            "fullUrl": "https://appmarket.epic.com/interconnect-amcurprd-oauth/api/FHIR/R4/Medication/ejXOShkQKsp85JuEP.1ZWTBasBaesMtSqbM9bdx-JkZT-ttl-yGbyVNdEyfXKYSyI3",
            "resource": {
                "resourceType": "Medication",
                "id": "ejXOShkQKsp85JuEP.1ZWTBasBaesMtSqbM9bdx-JkZT-ttl-yGbyVNdEyfXKYSyI3",
                "code": {
                    "coding": [
                        {
                            "system": "urn:oid:2.16.840.1.113883.6.253",
                            "code": "28057"
                        },
                        {
                            "system": "urn:oid:2.16.840.1.113883.6.68",
                            "code": "94402042002030"
                        },
                        {
                            "system": "http://www.nlm.nih.gov/research/umls/rxnorm",
                            "code": "5956"
                        },
                        {
                            "system": "urn:oid:2.16.840.1.113883.6.162",
                            "code": "06155"
                        }
                    ],
                    "text": "iohexol (OMNIPAQUE) 300 mg/mL"
                },
                "form": {
                    "coding": [
                        {
                            "system": "urn:oid:1.2.840.114350.1.13.0.1.7.4.698288.310",
                            "code": "SOLN",
                            "display": "solution"
                        }
                    ],
                    "text": "solution"
                },
                "ingredient": [
                    {
                        "itemCodeableConcept": {
                            "coding": [
                                {
                                    "system": "urn:oid:2.16.840.1.113883.6.253",
                                    "code": "28057"
                                },
                                {
                                    "system": "urn:oid:2.16.840.1.113883.6.68",
                                    "code": "94402042002030"
                                },
                                {
                                    "system": "http://www.nlm.nih.gov/research/umls/rxnorm",
                                    "code": "5956"
                                },
                                {
                                    "system": "urn:oid:2.16.840.1.113883.6.162",
                                    "code": "06155"
                                }
                            ],
                            "text": "iohexol (OMNIPAQUE) 300 mg/mL"
                        },
                        "strength": {
                            "numerator": {
                                "value": 300,
                                "unit": "MG/ML",
                                "system": "http://unitsofmeasure.org",
                                "code": "mg/mL"
                            },
                            "denominator": {
                                "value": 300,
                                "unit": "MG/ML",
                                "system": "http://unitsofmeasure.org",
                                "code": "mg/mL"
                            }
                        }
                    }
                ]
            },
            "search": {
                "mode": "include"
            }
        },
        {
            "link": [
                {
                    "relation": "self",
                    "url": "https://appmarket.epic.com/interconnect-amcurprd-oauth/api/FHIR/R4/Medication/ejXOShkQKsp85JuEP.1ZWTK0YZEj0y.RLlx933XgWP7HrytV6f5S5OiWTgD4F7VE33"
                }
            ],
            "fullUrl": "https://appmarket.epic.com/interconnect-amcurprd-oauth/api/FHIR/R4/Medication/ejXOShkQKsp85JuEP.1ZWTK0YZEj0y.RLlx933XgWP7HrytV6f5S5OiWTgD4F7VE33",
            "resource": {
                "resourceType": "Medication",
                "id": "ejXOShkQKsp85JuEP.1ZWTK0YZEj0y.RLlx933XgWP7HrytV6f5S5OiWTgD4F7VE33",
                "code": {
                    "coding": [
                        {
                            "system": "urn:oid:2.16.840.1.113883.6.253",
                            "code": "28057"
                        },
                        {
                            "system": "urn:oid:2.16.840.1.113883.6.68",
                            "code": "94402042002030"
                        },
                        {
                            "system": "http://www.nlm.nih.gov/research/umls/rxnorm",
                            "code": "5956"
                        },
                        {
                            "system": "urn:oid:2.16.840.1.113883.6.162",
                            "code": "06155"
                        }
                    ],
                    "text": "iohexol (OMNIPAQUE) 300 mg/mL"
                },
                "form": {
                    "coding": [
                        {
                            "system": "urn:oid:1.2.840.114350.1.13.0.1.7.4.698288.310",
                            "code": "SOLN",
                            "display": "solution"
                        }
                    ],
                    "text": "solution"
                },
                "ingredient": [
                    {
                        "itemCodeableConcept": {
                            "coding": [
                                {
                                    "system": "urn:oid:2.16.840.1.113883.6.253",
                                    "code": "28057"
                                },
                                {
                                    "system": "urn:oid:2.16.840.1.113883.6.68",
                                    "code": "94402042002030"
                                },
                                {
                                    "system": "http://www.nlm.nih.gov/research/umls/rxnorm",
                                    "code": "5956"
                                },
                                {
                                    "system": "urn:oid:2.16.840.1.113883.6.162",
                                    "code": "06155"
                                }
                            ],
                            "text": "iohexol (OMNIPAQUE) 300 mg/mL"
                        },
                        "strength": {
                            "numerator": {
                                "value": 300,
                                "unit": "MG/ML",
                                "system": "http://unitsofmeasure.org",
                                "code": "mg/mL"
                            },
                            "denominator": {
                                "value": 300,
                                "unit": "MG/ML",
                                "system": "http://unitsofmeasure.org",
                                "code": "mg/mL"
                            }
                        }
                    }
                ]
            },
            "search": {
                "mode": "include"
            }
        },
        {
            "link": [
                {
                    "relation": "self",
                    "url": "https://appmarket.epic.com/interconnect-amcurprd-oauth/api/FHIR/R4/Patient/euOFfK.JIxu9ZTVa0c.RcAw3"
                }
            ],
            "fullUrl": "https://appmarket.epic.com/interconnect-amcurprd-oauth/api/FHIR/R4/Patient/euOFfK.JIxu9ZTVa0c.RcAw3",
            "resource": {
                "resourceType": "Patient",
                "id": "euOFfK.JIxu9ZTVa0c.RcAw3",
                "extension": [
                    {
                        "extension": [
                            {
                                "valueCoding": {
                                    "system": "http://terminology.hl7.org/CodeSystem/v3-NullFlavor",
                                    "code": "UNK",
                                    "display": "Unknown"
                                },
                                "url": "ombCategory"
                            },
                            {
                                "valueString": "Unknown",
                                "url": "text"
                            }
                        ],
                        "url": "http://hl7.org/fhir/us/core/StructureDefinition/us-core-race"
                    },
                    {
                        "extension": [
                            {
                                "valueString": "Unknown",
                                "url": "text"
                            }
                        ],
                        "url": "http://hl7.org/fhir/us/core/StructureDefinition/us-core-ethnicity"
                    },
                    {
                        "valueCodeableConcept": {
                            "coding": [
                                {
                                    "system": "urn:oid:1.2.840.114350.1.13.0.1.7.10.698084.130.657370.19999000",
                                    "code": "male",
                                    "display": "male"
                                }
                            ]
                        },
                        "url": "http://open.epic.com/FHIR/StructureDefinition/extension/legal-sex"
                    },
                    {
                        "valueCodeableConcept": {
                            "coding": [
                                {
                                    "system": "urn:oid:1.2.840.114350.1.13.0.1.7.10.698084.130.657370.19999000",
                                    "code": "male",
                                    "display": "male"
                                }
                            ]
                        },
                        "url": "http://open.epic.com/FHIR/StructureDefinition/extension/sex-for-clinical-use"
                    },
                    {
                        "valueCode": "M",
                        "url": "http://hl7.org/fhir/us/core/StructureDefinition/us-core-birthsex"
                    }
                ],
                "identifier": [
                    {
                        "use": "usual",
                        "system": "urn:oid:2.16.840.1.113883.4.1",
                        "value": "405-88-8808"
                    },
                    {
                        "use": "usual",
                        "type": {
                            "text": "CEID"
                        },
                        "system": "urn:epic:apporchard.curprod",
                        "value": "AO1X2HG2RNG2FL7"
                    },
                    {
                        "use": "usual",
                        "type": {
                            "text": "EPIC"
                        },
                        "system": "urn:oid:1.2.840.114350.1.1",
                        "value": "E2748"
                    },
                    {
                        "use": "usual",
                        "type": {
                            "text": "EXTERNAL"
                        },
                        "system": "urn:oid:1.2.840.114350.1.13.0.1.7.2.698084",
                        "value": "Z5125"
                    },
                    {
                        "use": "usual",
                        "type": {
                            "text": "FHIR"
                        },
                        "system": "http://open.epic.com/FHIR/StructureDefinition/patient-dstu2-fhir-id",
                        "value": "TZ0Ff.JZaRdieZat.Ry6XnSbHBXWjYgKXLj1s9Sl2FpAB"
                    },
                    {
                        "use": "usual",
                        "type": {
                            "text": "FHIR STU3"
                        },
                        "system": "http://open.epic.com/FHIR/StructureDefinition/patient-fhir-id",
                        "value": "euOFfK.JIxu9ZTVa0c.RcAw3"
                    },
                    {
                        "use": "usual",
                        "type": {
                            "text": "INTERNAL"
                        },
                        "system": "urn:oid:1.2.840.114350.1.13.0.1.7.2.698084",
                        "value": "     Z5125"
                    },
                    {
                        "use": "usual",
                        "type": {
                            "text": "MRN"
                        },
                        "system": "urn:oid:1.2.840.114350.1.13.0.1.7.5.737384.14",
                        "value": "202514"
                    },
                    {
                        "use": "usual",
                        "type": {
                            "text": "MYCHARTLOGIN"
                        },
                        "system": "urn:oid:1.2.840.114350.1.13.0.1.7.3.878082.110",
                        "value": "RADBOB"
                    },
                    {
                        "use": "usual",
                        "type": {
                            "text": "WPRINTERNAL"
                        },
                        "system": "urn:oid:1.2.840.114350.1.13.0.1.7.2.878082",
                        "value": "555"
                    }
                ],
                "active": true,
                "name": [
                    {
                        "use": "official",
                        "text": "Bob Radiant",
                        "family": "Radiant",
                        "given": [
                            "Bob"
                        ]
                    },
                    {
                        "use": "usual",
                        "text": "Bob Radiant",
                        "family": "Radiant",
                        "given": [
                            "Bob"
                        ]
                    }
                ],
                "telecom": [
                    {
                        "system": "phone",
                        "value": "608-240-6464",
                        "use": "home"
                    }
                ],
                "gender": "male",
                "birthDate": "1968-12-10",
                "deceasedBoolean": false,
                "address": [
                    {
                        "use": "home",
                        "line": [
                            "3137 Maple Valley Dr"
                        ],
                        "city": "Madison",
                        "district": "DANE",
                        "state": "WI",
                        "postalCode": "53719",
                        "country": "US"
                    }
                ],
                "generalPractitioner": [
                    {
                        "reference": "Practitioner/emZzxNGSvfrjuJx1BK7FZ-g3",
                        "type": "Practitioner",
                        "display": "Epcci, MD"
                    }
                ],
                "managingOrganization": {
                    "reference": "Organization/enRyWnSP963FYDpoks4NHOA3",
                    "display": "Epic Hospital System"
                }
            },
            "search": {
                "mode": "include"
            }
        }
    ]
}