{
    "resourceType": "Bundle",
    "type": "searchset",
    "total": 2,
    "link": [
        {
            "relation": "self",
            "url": "https://appmarket.epic.com/interconnect-amcurprd-oauth/api/FHIR/R4/Encounter?_include=Encounter:condition&_include=Encounter:episodeOfCare&_include=Encounter:partOf&_include=Encounter:subject&_format=json&patient=eIqW-ReesA9NI5EptTQS6Rw3"
        }
    ],
    "entry": [
        {
            "link": [
                {
                    "relation": "self",
                    "url": "https://appmarket.epic.com/interconnect-amcurprd-oauth/api/FHIR/R4/Encounter/escFH3orfb4NHhEiXIULTqg3"
                }
            ],
            "fullUrl": "https://appmarket.epic.com/interconnect-amcurprd-oauth/api/FHIR/R4/Encounter/escFH3orfb4NHhEiXIULTqg3",
            "resource": {
                "resourceType": "Encounter",
                "id": "escFH3orfb4NHhEiXIULTqg3",
                "identifier": [
                    {
                        "use": "usual",
                        "system": "urn:oid:1.2.840.114350.1.13.0.1.7.3.698084.8",
                        "value": "26602"
                    }
                ],
                "status": "finished",
                "class": {
                    "system": "urn:oid:1.2.840.114350.1.72.1.7.7.10.696784.13260",
                    "code": "13",
                    "display": "Support OP Encounter"
                },
                "type": [
                    {
                        "coding": [
                            {
                                "system": "urn:oid:1.2.840.114350.1.13.0.1.7.10.698084.30",
                                "code": "111",
                                "display": "Orders Only"
                            }
                        ],
                        "text": "Orders Only"
                    }
                ],
                "subject": {
                    "reference": "Patient/eIqW-ReesA9NI5EptTQS6Rw3",
                    "display": "Beacon, Arnold"
                },
                "episodeOfCare": [
                    {
                        "reference": "EpisodeOfCare/eymb91EgkXAaUrjEQBxTRZw3",
                        "type": "EpisodeOfCare",
                        "display": "INFUSION TREATMENT"
                    }
                ],
                "period": {
                    "start": "2016-11-16",
                    "end": "2016-11-16"
                },
                "location": [
                    {
                        "location": {
                            "reference": "Location/eZ2KCLkj0UBz.2z8G4IHu8vi94yqxbyeqoHW1FIwKotM3",
                            "display": "EPH Cancer Center"
                        }
                    }
                ]
            },
            "search": {
                "mode": "match"
            }
        },
        {
            "link": [
                {
                    "relation": "self",
                    "url": "https://appmarket.epic.com/interconnect-amcurprd-oauth/api/FHIR/R4/Encounter/elC9IHtbhsQd52UFMZImCKA3"
                }
            ],
            "fullUrl": "https://appmarket.epic.com/interconnect-amcurprd-oauth/api/FHIR/R4/Encounter/elC9IHtbhsQd52UFMZImCKA3",
            "resource": {
                "resourceType": "Encounter",
                "id": "elC9IHtbhsQd52UFMZImCKA3",
                "identifier": [
                    {
                        "use": "usual",
                        "system": "urn:oid:1.2.840.114350.1.13.0.1.7.3.698084.8",
                        "value": "26589"
                    }
                ],
                "status": "finished",
                "class": {
                    "system": "urn:oid:1.2.840.114350.1.72.1.7.7.10.696784.13260",
                    "code": "13",
                    "display": "Support OP Encounter"
                },
                "type": [
                    {
                        "coding": [
                            {
                                "system": "urn:oid:1.2.840.114350.1.13.0.1.7.10.698084.30",
                                "code": "111",
                                "display": "Orders Only"
                            }
                        ],
                        "text": "Orders Only"
                    }
                ],
                "subject": {
                    "reference": "Patient/eIqW-ReesA9NI5EptTQS6Rw3",
                    "display": "Beacon, Arnold"
                },
                "episodeOfCare": [
                    {
                        "reference": "EpisodeOfCare/ezRQagmzQc7jnZNiTkgNQ8g3",
                        "type": "EpisodeOfCare",
                        "display": "ONCOLOGY TREATMENT"
                    }
                ],
                "period": {
                    "start": "2016-10-21",
                    "end": "2016-10-21"
                },
                "location": [
                    {
                        "location": {
                            "reference": "Location/eZ2KCLkj0UBz.2z8G4IHu8vi94yqxbyeqoHW1FIwKotM3",
                            "display": "EPH Cancer Center"
                        }
                    }
                ]
            },
            "search": {
                "mode": "match"
            }
        },
        {
            "link": [
                {
                    "relation": "self",
                    "url": "https://appmarket.epic.com/interconnect-amcurprd-oauth/api/FHIR/R4/Patient/eIqW-ReesA9NI5EptTQS6Rw3"
                }
            ],
            "fullUrl": "https://appmarket.epic.com/interconnect-amcurprd-oauth/api/FHIR/R4/Patient/eIqW-ReesA9NI5EptTQS6Rw3",
            "resource": {
                "resourceType": "Patient",
                "id": "eIqW-ReesA9NI5EptTQS6Rw3",
                "extension": [
                    {
                        "extension": [
                            {
                                "valueCoding": {
                                    "system": "urn:oid:2.16.840.1.113883.6.238",
                                    "code": "2106-3",
                                    "display": "White"
                                },
                                "url": "ombCategory"
                            },
                            {
                                "valueString": "White",
                                "url": "text"
                            }
                        ],
                        "url": "http://hl7.org/fhir/us/core/StructureDefinition/us-core-race"
                    },
                    {
                        "extension": [
                            {
                                "valueCoding": {
                                    "system": "urn:oid:2.16.840.1.113883.6.238",
                                    "code": "2186-5",
                                    "display": "Not Hispanic or Latino"
                                },
                                "url": "ombCategory"
                            },
                            {
                                "valueString": "Not Hispanic or Latino",
                                "url": "text"
                            }
                        ],
                        "url": "http://hl7.org/fhir/us/core/StructureDefinition/us-core-ethnicity"
                    },
                    {
                        "valueCodeableConcept": {
                            "coding": [
                                {
                                    "system": "urn:oid:1.2.840.114350.1.13.0.1.7.10.698084.130.657370.19999000",
                                    "code": "male",
                                    "display": "male"
                                }
                            ]
                        },
                        "url": "http://open.epic.com/FHIR/StructureDefinition/extension/legal-sex"
                    },
                    {
                        "valueCodeableConcept": {
                            "coding": [
                                {
                                    "system": "urn:oid:1.2.840.114350.1.13.0.1.7.10.698084.130.657370.19999000",
                                    "code": "male",
                                    "display": "male"
                                }
                            ]
                        },
                        "url": "http://open.epic.com/FHIR/StructureDefinition/extension/sex-for-clinical-use"
                    },
                    {
                        "valueCode": "M",
                        "url": "http://hl7.org/fhir/us/core/StructureDefinition/us-core-birthsex"
                    }
                ],
                "identifier": [
                    {
                        "use": "usual",
                        "system": "urn:oid:2.16.840.1.113883.4.1",
                        "value": "642-84-6510"
                    },
                    {
                        "use": "usual",
                        "type": {
                            "text": "CEID"
                        },
                        "system": "urn:epic:apporchard.curprod",
                        "value": "AO1JMBG13434HRT"
                    },
                    {
                        "use": "usual",
                        "type": {
                            "text": "EPIC"
                        },
                        "system": "urn:oid:1.2.840.114350.1.1",
                        "value": "E3849"
                    },
                    {
                        "use": "usual",
                        "type": {
                            "text": "EXTERNAL"
                        },
                        "system": "urn:oid:1.2.840.114350.1.13.0.1.7.2.698084",
                        "value": "Z5713"
                    },
                    {
                        "use": "usual",
                        "type": {
                            "text": "FHIR"
                        },
                        "system": "http://open.epic.com/FHIR/StructureDefinition/patient-dstu2-fhir-id",
                        "value": "TpxQFVahABbDEQAyLW.-1ZbseAjK9L5LLNSvqict0td4B"
                    },
                    {
                        "use": "usual",
                        "type": {
                            "text": "FHIR STU3"
                        },
                        "system": "http://open.epic.com/FHIR/StructureDefinition/patient-fhir-id",
                        "value": "eIqW-ReesA9NI5EptTQS6Rw3"
                    },
                    {
                        "use": "usual",
                        "type": {
                            "text": "INTERNAL"
                        },
                        "system": "urn:oid:1.2.840.114350.1.13.0.1.7.2.698084",
                        "value": "     Z5713"
                    },
                    {
                        "use": "usual",
                        "type": {
                            "text": "MRN"
                        },
                        "system": "urn:oid:1.2.840.114350.1.13.0.1.7.5.737384.14",
                        "value": "203584"
                    }
                ],
                "active": true,
                "name": [
                    {
                        "use": "official",
                        "text": "Arnold Beacon",
                        "family": "Beacon",
                        "given": [
                            "Arnold"
                        ]
                    },
                    {
                        "use": "usual",
                        "text": "Arnold Beacon",
                        "family": "Beacon",
                        "given": [
                            "Arnold"
                        ]
                    }
                ],
                "telecom": [
                    {
                        "system": "phone",
                        "value": "608-555-9000",
                        "use": "home"
                    },
                    {
                        "system": "phone",
                        "value": "608-555-2000",
                        "use": "mobile"
                    }
                ],
                "gender": "male",
                "birthDate": "1963-07-25",
                "deceasedBoolean": false,
                "address": [
                    {
                        "use": "home",
                        "line": [
                            "5533 Maple Lane"
                        ],
                        "city": "MADISON",
                        "district": "DANE",
                        "state": "WI",
                        "postalCode": "53711",
                        "country": "US"
                    }
                ],
                "maritalStatus": {
                    "text": "Single"
                },
                "communication": [
                    {
                        "language": {
                            "coding": [
                                {
                                    "system": "urn:ietf:bcp:47",
                                    "code": "en",
                                    "display": "English"
                                }
                            ],
                            "text": "English"
                        },
                        "preferred": true
                    }
                ],
                "managingOrganization": {
                    "reference": "Organization/enRyWnSP963FYDpoks4NHOA3",
                    "display": "Epic Hospital System"
                }
            },
            "search": {
                "mode": "include"
            }
        },
        {
            "link": [
                {
                    "relation": "self",
                    "url": "https://appmarket.epic.com/interconnect-amcurprd-oauth/api/FHIR/R4/EpisodeOfCare/eymb91EgkXAaUrjEQBxTRZw3"
                }
            ],
            "fullUrl": "https://appmarket.epic.com/interconnect-amcurprd-oauth/api/FHIR/R4/EpisodeOfCare/eymb91EgkXAaUrjEQBxTRZw3",
            "resource": {
                "resourceType": "EpisodeOfCare",
                "id": "eymb91EgkXAaUrjEQBxTRZw3",
                "extension": [
                    {
                        "valueString": "INFUSION TREATMENT",
                        "url": "http://open.epic.com/FHIR/StructureDefinition/extension/episode-name"
                    }
                ],
                "status": "active",
                "type": [
                    {
                        "coding": [
                            {
                                "system": "urn:oid:1.2.840.114350.1.13.0.1.7.2.726668",
                                "code": "2000000003",
                                "display": "INFUSION TREATMENT"
                            },
                            {
                                "system": "urn:oid:1.2.840.114350.1.13.0.1.7.4.726668.130",
                                "code": "19",
                                "display": "Therapy Plan"
                            }
                        ],
                        "text": "INFUSION TREATMENT"
                    }
                ],
                "diagnosis": [
                    {
                        "condition": {
                            "reference": "Condition/edbQBcrRnTUwpzs8RTIrZdQ3",
                            "type": "Condition",
                            "display": "Cancer (CMS/HCC)"
                        }
                    }
                ],
                "patient": {
                    "reference": "Patient/eIqW-ReesA9NI5EptTQS6Rw3",
                    "type": "Patient",
                    "display": "Beacon, Arnold"
                },
                "period": {
                    "start": "2016-11-16"
                },
                "team": [
                    {
                        "reference": "CareTeam/eopnYt7euPkrAERHqqi1rWT2ngwuwZcThObdxwZ9Vpok3",
                        "type": "CareTeam"
                    }
                ]
            },
            "search": {
                "mode": "include"
            }
        },
        {
            "link": [
                {
                    "relation": "self",
                    "url": "https://appmarket.epic.com/interconnect-amcurprd-oauth/api/FHIR/R4/EpisodeOfCare/ezRQagmzQc7jnZNiTkgNQ8g3"
                }
            ],
            "fullUrl": "https://appmarket.epic.com/interconnect-amcurprd-oauth/api/FHIR/R4/EpisodeOfCare/ezRQagmzQc7jnZNiTkgNQ8g3",
            "resource": {
                "resourceType": "EpisodeOfCare",
                "id": "ezRQagmzQc7jnZNiTkgNQ8g3",
                "extension": [
                    {
                        "valueString": "ONCOLOGY TREATMENT",
                        "url": "http://open.epic.com/FHIR/StructureDefinition/extension/episode-name"
                    }
                ],
                "status": "active",
                "type": [
                    {
                        "coding": [
                            {
                                "system": "urn:oid:1.2.840.114350.1.13.0.1.7.2.726668",
                                "code": "10",
                                "display": "ONCOLOGY TREATMENT"
                            },
                            {
                                "system": "urn:oid:1.2.840.114350.1.13.0.1.7.4.726668.130",
                                "code": "18",
                                "display": "Beacon - Treatment Plan"
                            }
                        ],
                        "text": "ONCOLOGY TREATMENT"
                    }
                ],
                "diagnosis": [
                    {
                        "condition": {
                            "reference": "Condition/edbQBcrRnTUwpzs8RTIrZdQ3",
                            "type": "Condition",
                            "display": "Cancer (CMS/HCC)"
                        }
                    }
                ],
                "patient": {
                    "reference": "Patient/eIqW-ReesA9NI5EptTQS6Rw3",
                    "type": "Patient",
                    "display": "Beacon, Arnold"
                },
                "period": {
                    "start": "2016-10-20"
                },
                "team": [
                    {
                        "reference": "CareTeam/eopnYt7euPkrAERHqqi1rWYrUc4PQE3lwWfNwF7jQdKk3",
                        "type": "CareTeam"
                    }
                ]
            },
            "search": {
                "mode": "include"
            }
        }
    ]
}