{
    "resourceType": "Bundle",
    "type": "searchset",
    "total": 15,
    "link": [
        {
            "relation": "self",
            "url": "https://appmarket.epic.com/interconnect-amcurprd-oauth/api/FHIR/R4/Encounter?_include=Encounter:condition&_include=Encounter:episodeOfCare&_include=Encounter:partOf&_include=Encounter:subject&_format=json&patient=eYg3-1aJmCMq-umIIq2Njxw3"
        }
    ],
    "entry": [
        {
            "link": [
                {
                    "relation": "self",
                    "url": "https://appmarket.epic.com/interconnect-amcurprd-oauth/api/FHIR/R4/Encounter/epDAbr-PlscLmLQ4Yf9Yzdg3"
                }
            ],
            "fullUrl": "https://appmarket.epic.com/interconnect-amcurprd-oauth/api/FHIR/R4/Encounter/epDAbr-PlscLmLQ4Yf9Yzdg3",
            "resource": {
                "resourceType": "Encounter",
                "id": "epDAbr-PlscLmLQ4Yf9Yzdg3",
                "identifier": [
                    {
                        "use": "usual",
                        "system": "urn:oid:1.2.840.114350.1.13.0.1.7.3.698084.8",
                        "value": "38935"
                    }
                ],
                "status": "unknown",
                "class": {
                    "system": "urn:oid:1.2.840.114350.1.72.1.7.7.10.696784.13260",
                    "code": "1",
                    "display": "Surgery Case"
                },
                "type": [
                    {
                        "coding": [
                            {
                                "system": "urn:oid:1.2.840.114350.1.13.0.1.7.10.698084.30",
                                "code": "51",
                                "display": "Surgery"
                            }
                        ],
                        "text": "Surgery"
                    }
                ],
                "subject": {
                    "reference": "Patient/eYg3-1aJmCMq-umIIq2Njxw3",
                    "display": "Anesthesia, Abby"
                },
                "participant": [
                    {
                        "individual": {
                            "reference": "Practitioner/e7D.u41Zv3VPrLmUp-mWnrQ3",
                            "type": "Practitioner",
                            "display": "Physician Champion, MD"
                        }
                    }
                ],
                "period": {
                    "start": "2022-11-01",
                    "end": "2022-11-01"
                },
                "location": [
                    {
                        "location": {
                            "reference": "Location/efR3SIdpRKF9BFBM5qakt9F5X1mWxjiAGu2hNTKbqOdI3",
                            "display": "EMH Operating Room"
                        }
                    }
                ],
                "partOf": {
                    "reference": "Encounter/eIZ3ZrCYQPKHsrjYiKOQ3Pw3",
                    "identifier": {
                        "use": "usual",
                        "system": "urn:oid:1.2.840.114350.1.13.0.1.7.3.698084.8",
                        "value": "38937"
                    },
                    "display": "Hospital Encounter"
                }
            },
            "search": {
                "mode": "match"
            }
        },
        {
            "link": [
                {
                    "relation": "self",
                    "url": "https://appmarket.epic.com/interconnect-amcurprd-oauth/api/FHIR/R4/Encounter/eNNOgrrK7h7p--DH2Gx3PaQ3"
                }
            ],
            "fullUrl": "https://appmarket.epic.com/interconnect-amcurprd-oauth/api/FHIR/R4/Encounter/eNNOgrrK7h7p--DH2Gx3PaQ3",
            "resource": {
                "resourceType": "Encounter",
                "id": "eNNOgrrK7h7p--DH2Gx3PaQ3",
                "identifier": [
                    {
                        "use": "usual",
                        "system": "urn:oid:1.2.840.114350.1.13.0.1.7.3.698084.8",
                        "value": "38932"
                    }
                ],
                "status": "unknown",
                "class": {
                    "system": "urn:oid:1.2.840.114350.1.72.1.7.7.10.696784.13260",
                    "code": "1",
                    "display": "Surgery Case"
                },
                "type": [
                    {
                        "coding": [
                            {
                                "system": "urn:oid:1.2.840.114350.1.13.0.1.7.10.698084.30",
                                "code": "51",
                                "display": "Surgery"
                            }
                        ],
                        "text": "Surgery"
                    }
                ],
                "subject": {
                    "reference": "Patient/eYg3-1aJmCMq-umIIq2Njxw3",
                    "display": "Anesthesia, Abby"
                },
                "participant": [
                    {
                        "individual": {
                            "reference": "Practitioner/e7D.u41Zv3VPrLmUp-mWnrQ3",
                            "type": "Practitioner",
                            "display": "Physician Champion, MD"
                        }
                    }
                ],
                "period": {
                    "start": "2022-09-01T16:45:00Z",
                    "end": "2022-09-01T18:15:00Z"
                },
                "location": [
                    {
                        "location": {
                            "reference": "Location/efR3SIdpRKF9BFBM5qakt9F5X1mWxjiAGu2hNTKbqOdI3",
                            "display": "EMH Operating Room"
                        }
                    }
                ],
                "partOf": {
                    "reference": "Encounter/eg5KmF2hBHWya0DNppQWejw3",
                    "identifier": {
                        "use": "usual",
                        "system": "urn:oid:1.2.840.114350.1.13.0.1.7.3.698084.8",
                        "value": "38934"
                    },
                    "display": "Hospital Encounter"
                }
            },
            "search": {
                "mode": "match"
            }
        },
        {
            "link": [
                {
                    "relation": "self",
                    "url": "https://appmarket.epic.com/interconnect-amcurprd-oauth/api/FHIR/R4/Encounter/eIZ3ZrCYQPKHsrjYiKOQ3Pw3"
                }
            ],
            "fullUrl": "https://appmarket.epic.com/interconnect-amcurprd-oauth/api/FHIR/R4/Encounter/eIZ3ZrCYQPKHsrjYiKOQ3Pw3",
            "resource": {
                "resourceType": "Encounter",
                "id": "eIZ3ZrCYQPKHsrjYiKOQ3Pw3",
                "identifier": [
                    {
                        "use": "usual",
                        "system": "urn:oid:1.2.840.114350.1.13.0.1.7.3.698084.8",
                        "value": "38937"
                    }
                ],
                "status": "planned",
                "class": {
                    "system": "urn:oid:1.2.840.114350.1.72.1.7.7.10.696784.13260",
                    "code": "2",
                    "display": "Preadmission"
                },
                "type": [
                    {
                        "coding": [
                            {
                                "system": "urn:oid:1.2.840.114350.1.13.0.1.7.10.698084.10110",
                                "code": "108",
                                "display": "Surgery Admit"
                            }
                        ],
                        "text": "Surgery Admit"
                    },
                    {
                        "coding": [
                            {
                                "system": "urn:oid:1.2.840.114350.1.13.0.1.7.10.698084.30",
                                "code": "3",
                                "display": "Hospital Encounter"
                            }
                        ],
                        "text": "Hospital Encounter"
                    }
                ],
                "serviceType": {
                    "coding": [
                        {
                            "system": "urn:oid:1.2.840.114350.1.13.0.1.7.10.698084.18886",
                            "code": "124",
                            "display": "General Surgery"
                        }
                    ],
                    "text": "General Surgery"
                },
                "subject": {
                    "reference": "Patient/eYg3-1aJmCMq-umIIq2Njxw3",
                    "display": "Anesthesia, Abby"
                },
                "participant": [
                    {
                        "type": [
                            {
                                "coding": [
                                    {
                                        "system": "http://hl7.org/fhir/v3/ParticipationType",
                                        "code": "ADM",
                                        "display": "admitter"
                                    }
                                ],
                                "text": "admitter"
                            }
                        ],
                        "individual": {
                            "reference": "Practitioner/e5gDdAc2zcsKxfyCQYCkJiw3",
                            "type": "Practitioner",
                            "display": "Surgeon Trauma, MD"
                        }
                    },
                    {
                        "type": [
                            {
                                "coding": [
                                    {
                                        "system": "http://hl7.org/fhir/v3/ParticipationType",
                                        "code": "ATND",
                                        "display": "attender"
                                    }
                                ],
                                "text": "attender"
                            }
                        ],
                        "individual": {
                            "reference": "Practitioner/e5gDdAc2zcsKxfyCQYCkJiw3",
                            "type": "Practitioner",
                            "display": "Surgeon Trauma, MD"
                        }
                    },
                    {
                        "extension": [
                            {
                                "valueCodeableConcept": {
                                    "coding": [
                                        {
                                            "system": "urn:oid:1.2.840.114350.1.13.0.1.7.4.698084.18832",
                                            "code": "137",
                                            "display": "Trauma Surgery"
                                        }
                                    ],
                                    "text": "Trauma Surgery"
                                },
                                "url": "http://open.epic.com/FHIR/StructureDefinition/extension/specialty"
                            }
                        ],
                        "type": [
                            {
                                "coding": [
                                    {
                                        "system": "urn:oid:1.2.840.114350.1.13.0.1.7.10.698084.18869",
                                        "code": "Surgeon",
                                        "display": "Surgeon"
                                    }
                                ],
                                "text": "Surgeon"
                            }
                        ],
                        "period": {
                            "start": "2022-06-10T21:55:48Z"
                        },
                        "individual": {
                            "reference": "Practitioner/e5gDdAc2zcsKxfyCQYCkJiw3",
                            "type": "Practitioner",
                            "display": "Surgeon Trauma, MD"
                        }
                    }
                ],
                "period": {
                    "start": "2022-11-01"
                },
                "reasonCode": [
                    {
                        "coding": [
                            {
                                "system": "http://snomed.info/sct",
                                "code": "208232005",
                                "display": "Open fracture scapula, coracoid (disorder)"
                            }
                        ],
                        "text": "Open displaced fracture of coracoid process of right shoulder, initial encounter"
                    }
                ],
                "account": [
                    {
                        "identifier": {
                            "system": "urn:oid:1.2.840.114350.1.13.0.1.7.2.726582",
                            "value": "1001253"
                        },
                        "display": "ANESTHESIA,ABBY"
                    }
                ],
                "location": [
                    {
                        "location": {
                            "reference": "Location/eih1L3clnoL-Odea34LokKYlHPndLwGjYudOa4y6QHvk3",
                            "display": "EMH Main Operating Room"
                        }
                    },
                    {
                        "location": {
                            "reference": "Location/eih1L3clnoL-Odea34LokKYlHPndLwGjYudOa4y6QHvk3",
                            "display": "EMH Main Operating Room"
                        }
                    },
                    {
                        "location": {
                            "reference": "Location/eQSOrLdbVrMRc68KBcTBG4A3",
                            "display": "Epic Hospital System"
                        }
                    }
                ]
            },
            "search": {
                "mode": "match"
            }
        },
        {
            "link": [
                {
                    "relation": "self",
                    "url": "https://appmarket.epic.com/interconnect-amcurprd-oauth/api/FHIR/R4/Encounter/eg5KmF2hBHWya0DNppQWejw3"
                }
            ],
            "fullUrl": "https://appmarket.epic.com/interconnect-amcurprd-oauth/api/FHIR/R4/Encounter/eg5KmF2hBHWya0DNppQWejw3",
            "resource": {
                "resourceType": "Encounter",
                "id": "eg5KmF2hBHWya0DNppQWejw3",
                "identifier": [
                    {
                        "use": "usual",
                        "system": "urn:oid:1.2.840.114350.1.13.0.1.7.3.698084.8",
                        "value": "38934"
                    }
                ],
                "status": "planned",
                "class": {
                    "system": "urn:oid:1.2.840.114350.1.72.1.7.7.10.696784.13260",
                    "code": "2",
                    "display": "Preadmission"
                },
                "type": [
                    {
                        "coding": [
                            {
                                "system": "urn:oid:1.2.840.114350.1.13.0.1.7.10.698084.10110",
                                "code": "108",
                                "display": "Surgery Admit"
                            }
                        ],
                        "text": "Surgery Admit"
                    },
                    {
                        "coding": [
                            {
                                "system": "urn:oid:1.2.840.114350.1.13.0.1.7.10.698084.30",
                                "code": "3",
                                "display": "Hospital Encounter"
                            }
                        ],
                        "text": "Hospital Encounter"
                    }
                ],
                "serviceType": {
                    "coding": [
                        {
                            "system": "urn:oid:1.2.840.114350.1.13.0.1.7.10.698084.18886",
                            "code": "124",
                            "display": "General Surgery"
                        }
                    ],
                    "text": "General Surgery"
                },
                "subject": {
                    "reference": "Patient/eYg3-1aJmCMq-umIIq2Njxw3",
                    "display": "Anesthesia, Abby"
                },
                "participant": [
                    {
                        "type": [
                            {
                                "coding": [
                                    {
                                        "system": "http://hl7.org/fhir/v3/ParticipationType",
                                        "code": "ADM",
                                        "display": "admitter"
                                    }
                                ],
                                "text": "admitter"
                            }
                        ],
                        "individual": {
                            "reference": "Practitioner/eEqlw.bq.AtAr58nQUHl8.Q3",
                            "type": "Practitioner",
                            "display": "Physician Bariatric Surgery, MD"
                        }
                    },
                    {
                        "type": [
                            {
                                "coding": [
                                    {
                                        "system": "http://hl7.org/fhir/v3/ParticipationType",
                                        "code": "ATND",
                                        "display": "attender"
                                    }
                                ],
                                "text": "attender"
                            }
                        ],
                        "individual": {
                            "reference": "Practitioner/eEqlw.bq.AtAr58nQUHl8.Q3",
                            "type": "Practitioner",
                            "display": "Physician Bariatric Surgery, MD"
                        }
                    },
                    {
                        "extension": [
                            {
                                "valueCodeableConcept": {
                                    "coding": [
                                        {
                                            "system": "urn:oid:1.2.840.114350.1.13.0.1.7.4.698084.18832",
                                            "code": "74",
                                            "display": "Bariatrics"
                                        }
                                    ],
                                    "text": "Bariatrics"
                                },
                                "url": "http://open.epic.com/FHIR/StructureDefinition/extension/specialty"
                            }
                        ],
                        "type": [
                            {
                                "coding": [
                                    {
                                        "system": "urn:oid:1.2.840.114350.1.13.0.1.7.10.698084.18869",
                                        "code": "Surgeon",
                                        "display": "Surgeon"
                                    }
                                ],
                                "text": "Surgeon"
                            }
                        ],
                        "period": {
                            "start": "2022-06-10T21:53:48Z"
                        },
                        "individual": {
                            "reference": "Practitioner/eEqlw.bq.AtAr58nQUHl8.Q3",
                            "type": "Practitioner",
                            "display": "Physician Bariatric Surgery, MD"
                        }
                    }
                ],
                "period": {
                    "start": "2022-09-01T16:45:00Z",
                    "end": "2173-09-27T17:45:00Z"
                },
                "reasonCode": [
                    {
                        "coding": [
                            {
                                "system": "http://snomed.info/sct",
                                "code": "266433003",
                                "display": "Gastroesophageal reflux disease with esophagitis (disorder)"
                            }
                        ],
                        "text": "Gastroesophageal reflux disease with esophagitis"
                    }
                ],
                "account": [
                    {
                        "identifier": {
                            "system": "urn:oid:1.2.840.114350.1.13.0.1.7.2.726582",
                            "value": "1001254"
                        },
                        "display": "ANESTHESIA,ABBY"
                    }
                ],
                "location": [
                    {
                        "location": {
                            "reference": "Location/eih1L3clnoL-Odea34LokKYlHPndLwGjYudOa4y6QHvk3",
                            "display": "EMH Main Operating Room"
                        }
                    },
                    {
                        "location": {
                            "reference": "Location/eih1L3clnoL-Odea34LokKYlHPndLwGjYudOa4y6QHvk3",
                            "display": "EMH Main Operating Room"
                        }
                    },
                    {
                        "location": {
                            "reference": "Location/eQSOrLdbVrMRc68KBcTBG4A3",
                            "display": "Epic Hospital System"
                        }
                    }
                ]
            },
            "search": {
                "mode": "match"
            }
        },
        {
            "link": [
                {
                    "relation": "self",
                    "url": "https://appmarket.epic.com/interconnect-amcurprd-oauth/api/FHIR/R4/Encounter/er2XXmZXuRR0hCS3bduqLSA3"
                }
            ],
            "fullUrl": "https://appmarket.epic.com/interconnect-amcurprd-oauth/api/FHIR/R4/Encounter/er2XXmZXuRR0hCS3bduqLSA3",
            "resource": {
                "resourceType": "Encounter",
                "id": "er2XXmZXuRR0hCS3bduqLSA3",
                "identifier": [
                    {
                        "use": "usual",
                        "system": "urn:oid:1.2.840.114350.1.13.0.1.7.3.698084.8",
                        "value": "38265"
                    }
                ],
                "status": "finished",
                "class": {
                    "system": "urn:oid:1.2.840.114350.1.72.1.7.7.10.696784.13260",
                    "code": "13",
                    "display": "Support OP Encounter"
                },
                "type": [
                    {
                        "coding": [
                            {
                                "system": "urn:oid:1.2.840.114350.1.13.0.1.7.10.698084.30",
                                "code": "101",
                                "display": "Office Visit"
                            }
                        ],
                        "text": "Office Visit"
                    }
                ],
                "subject": {
                    "reference": "Patient/eYg3-1aJmCMq-umIIq2Njxw3",
                    "display": "Anesthesia, Abby"
                },
                "participant": [
                    {
                        "type": [
                            {
                                "text": "losAuthorizingPhysician"
                            }
                        ],
                        "individual": {
                            "reference": "Practitioner/ef9TegF2nfECi-0Skirbvpg3",
                            "type": "Practitioner",
                            "display": "Physician One Cardiology, MD"
                        }
                    }
                ],
                "period": {
                    "start": "2021-12-28",
                    "end": "2021-12-28"
                },
                "location": [
                    {
                        "location": {
                            "reference": "Location/e4W4rmGe9QzuGm2Dy4NBqVc0KDe6yGld6HW95UuN-Qd03",
                            "display": "EMC Family Medicine"
                        }
                    }
                ]
            },
            "search": {
                "mode": "match"
            }
        },
        {
            "link": [
                {
                    "relation": "self",
                    "url": "https://appmarket.epic.com/interconnect-amcurprd-oauth/api/FHIR/R4/Encounter/emXesGCIEfbiF4Yb6e0ghDQ3"
                }
            ],
            "fullUrl": "https://appmarket.epic.com/interconnect-amcurprd-oauth/api/FHIR/R4/Encounter/emXesGCIEfbiF4Yb6e0ghDQ3",
            "resource": {
                "resourceType": "Encounter",
                "id": "emXesGCIEfbiF4Yb6e0ghDQ3",
                "identifier": [
                    {
                        "use": "usual",
                        "system": "urn:oid:1.2.840.114350.1.13.0.1.7.3.698084.8",
                        "value": "38266"
                    }
                ],
                "status": "finished",
                "class": {
                    "system": "urn:oid:1.2.840.114350.1.72.1.7.7.10.696784.13260",
                    "code": "13",
                    "display": "Support OP Encounter"
                },
                "type": [
                    {
                        "coding": [
                            {
                                "system": "urn:oid:1.2.840.114350.1.13.0.1.7.10.698084.30",
                                "code": "101",
                                "display": "Office Visit"
                            }
                        ],
                        "text": "Office Visit"
                    }
                ],
                "subject": {
                    "reference": "Patient/eYg3-1aJmCMq-umIIq2Njxw3",
                    "display": "Anesthesia, Abby"
                },
                "participant": [
                    {
                        "type": [
                            {
                                "text": "losAuthorizingPhysician"
                            }
                        ],
                        "individual": {
                            "reference": "Practitioner/ef9TegF2nfECi-0Skirbvpg3",
                            "type": "Practitioner",
                            "display": "Physician One Cardiology, MD"
                        }
                    }
                ],
                "period": {
                    "start": "2021-12-15",
                    "end": "2021-12-15"
                },
                "location": [
                    {
                        "location": {
                            "reference": "Location/e4W4rmGe9QzuGm2Dy4NBqVc0KDe6yGld6HW95UuN-Qd03",
                            "display": "EMC Family Medicine"
                        }
                    }
                ]
            },
            "search": {
                "mode": "match"
            }
        },
        {
            "link": [
                {
                    "relation": "self",
                    "url": "https://appmarket.epic.com/interconnect-amcurprd-oauth/api/FHIR/R4/Encounter/eC9g81elqT96OC2R4yz88nw3"
                }
            ],
            "fullUrl": "https://appmarket.epic.com/interconnect-amcurprd-oauth/api/FHIR/R4/Encounter/eC9g81elqT96OC2R4yz88nw3",
            "resource": {
                "resourceType": "Encounter",
                "id": "eC9g81elqT96OC2R4yz88nw3",
                "identifier": [
                    {
                        "use": "usual",
                        "system": "urn:oid:1.2.840.114350.1.13.0.1.7.3.698084.8",
                        "value": "25705"
                    }
                ],
                "status": "finished",
                "class": {
                    "system": "urn:oid:1.2.840.114350.1.72.1.7.7.10.696784.13260",
                    "code": "5",
                    "display": "Appointment"
                },
                "type": [
                    {
                        "coding": [
                            {
                                "system": "urn:oid:1.2.840.114350.1.13.0.1.7.10.698084.10110",
                                "code": "102",
                                "display": "Outpatient"
                            }
                        ],
                        "text": "Outpatient"
                    },
                    {
                        "coding": [
                            {
                                "system": "urn:oid:1.2.840.114350.1.13.0.1.7.10.698084.30",
                                "code": "50",
                                "display": "Appointment"
                            }
                        ],
                        "text": "Appointment"
                    },
                    {
                        "coding": [
                            {
                                "system": "urn:oid:1.2.840.114350.1.13.0.1.7.2.808267",
                                "code": "1053001",
                                "display": "X-Ray Exam"
                            }
                        ],
                        "text": "X-Ray Exam"
                    }
                ],
                "subject": {
                    "reference": "Patient/eYg3-1aJmCMq-umIIq2Njxw3",
                    "display": "Anesthesia, Abby"
                },
                "participant": [
                    {
                        "type": [
                            {
                                "coding": [
                                    {
                                        "system": "http://hl7.org/fhir/v3/ParticipationType",
                                        "code": "REF",
                                        "display": "referrer"
                                    }
                                ],
                                "text": "referrer"
                            }
                        ],
                        "individual": {
                            "reference": "Practitioner/eOyFJ.PiGBcbhr3T1oyJZ1A3",
                            "type": "Practitioner",
                            "display": "Physician Surgery, MD"
                        }
                    },
                    {
                        "period": {
                            "start": "2016-07-29T14:25:00Z",
                            "end": "2016-07-29T14:55:00Z"
                        },
                        "individual": {
                            "display": "EMH X-RAY 2"
                        }
                    }
                ],
                "period": {
                    "start": "2016-07-29T14:25:00Z",
                    "end": "2016-07-29T14:55:00Z"
                },
                "account": [
                    {
                        "identifier": {
                            "system": "urn:oid:1.2.840.114350.1.13.0.1.7.2.726582",
                            "value": "1000394"
                        },
                        "display": "ANESTHESIA,ABBY"
                    }
                ],
                "location": [
                    {
                        "location": {
                            "reference": "Location/e6.GHPEJ3Jrk18e14wi2AJ5vFRqvLa0ZB6qH40N4UgB03",
                            "display": "EMH X-Ray Imaging"
                        }
                    }
                ],
                "partOf": {
                    "reference": "Encounter/eq8b9H5iOvODTxzxW9Cywlg3",
                    "identifier": {
                        "use": "usual",
                        "system": "urn:oid:1.2.840.114350.1.13.0.1.7.3.698084.8",
                        "value": "11903"
                    },
                    "display": "Hospital Encounter"
                }
            },
            "search": {
                "mode": "match"
            }
        },
        {
            "link": [
                {
                    "relation": "self",
                    "url": "https://appmarket.epic.com/interconnect-amcurprd-oauth/api/FHIR/R4/Encounter/eWMfFqEpHBVSZACpdXc36WA3"
                }
            ],
            "fullUrl": "https://appmarket.epic.com/interconnect-amcurprd-oauth/api/FHIR/R4/Encounter/eWMfFqEpHBVSZACpdXc36WA3",
            "resource": {
                "resourceType": "Encounter",
                "id": "eWMfFqEpHBVSZACpdXc36WA3",
                "identifier": [
                    {
                        "use": "usual",
                        "system": "urn:oid:1.2.840.114350.1.13.0.1.7.3.698084.8",
                        "value": "11900"
                    }
                ],
                "status": "unknown",
                "class": {
                    "system": "urn:oid:1.2.840.114350.1.72.1.7.7.10.696784.13260",
                    "code": "10",
                    "display": "Surgery Log"
                },
                "type": [
                    {
                        "coding": [
                            {
                                "system": "urn:oid:1.2.840.114350.1.13.0.1.7.10.698084.30",
                                "code": "51",
                                "display": "Surgery"
                            }
                        ],
                        "text": "Surgery"
                    }
                ],
                "subject": {
                    "reference": "Patient/eYg3-1aJmCMq-umIIq2Njxw3",
                    "display": "Anesthesia, Abby"
                },
                "participant": [
                    {
                        "individual": {
                            "reference": "Practitioner/e7D.u41Zv3VPrLmUp-mWnrQ3",
                            "type": "Practitioner",
                            "display": "Physician Champion, MD"
                        }
                    }
                ],
                "period": {
                    "start": "2013-11-16T14:00:00Z",
                    "end": "2013-11-16T16:00:00Z"
                },
                "location": [
                    {
                        "location": {
                            "reference": "Location/efR3SIdpRKF9BFBM5qakt9F5X1mWxjiAGu2hNTKbqOdI3",
                            "display": "EMH Operating Room"
                        }
                    }
                ],
                "partOf": {
                    "reference": "Encounter/eq8b9H5iOvODTxzxW9Cywlg3",
                    "identifier": {
                        "use": "usual",
                        "system": "urn:oid:1.2.840.114350.1.13.0.1.7.3.698084.8",
                        "value": "11903"
                    },
                    "display": "Hospital Encounter"
                }
            },
            "search": {
                "mode": "match"
            }
        },
        {
            "link": [
                {
                    "relation": "self",
                    "url": "https://appmarket.epic.com/interconnect-amcurprd-oauth/api/FHIR/R4/Encounter/e7UNT98mLAJY7TLJAe5k6Kg3"
                }
            ],
            "fullUrl": "https://appmarket.epic.com/interconnect-amcurprd-oauth/api/FHIR/R4/Encounter/e7UNT98mLAJY7TLJAe5k6Kg3",
            "resource": {
                "resourceType": "Encounter",
                "id": "e7UNT98mLAJY7TLJAe5k6Kg3",
                "identifier": [
                    {
                        "use": "usual",
                        "system": "urn:oid:1.2.840.114350.1.13.0.1.7.3.698084.8",
                        "value": "11902"
                    }
                ],
                "status": "cancelled",
                "class": {
                    "system": "urn:oid:1.2.840.114350.1.72.1.7.7.10.696784.13260",
                    "code": "2",
                    "display": "Preadmission"
                },
                "type": [
                    {
                        "coding": [
                            {
                                "system": "urn:oid:1.2.840.114350.1.13.0.1.7.10.698084.10110",
                                "code": "106",
                                "display": "Hospital Outpatient Surgery"
                            }
                        ],
                        "text": "Hospital Outpatient Surgery"
                    },
                    {
                        "coding": [
                            {
                                "system": "urn:oid:1.2.840.114350.1.13.0.1.7.10.698084.30",
                                "code": "3",
                                "display": "Hospital Encounter"
                            }
                        ],
                        "text": "Hospital Encounter"
                    }
                ],
                "serviceType": {
                    "coding": [
                        {
                            "system": "urn:oid:1.2.840.114350.1.13.0.1.7.10.698084.18886",
                            "code": "124",
                            "display": "General Surgery"
                        }
                    ],
                    "text": "General Surgery"
                },
                "subject": {
                    "reference": "Patient/eYg3-1aJmCMq-umIIq2Njxw3",
                    "display": "Anesthesia, Abby"
                },
                "participant": [
                    {
                        "type": [
                            {
                                "coding": [
                                    {
                                        "system": "http://hl7.org/fhir/v3/ParticipationType",
                                        "code": "ADM",
                                        "display": "admitter"
                                    }
                                ],
                                "text": "admitter"
                            }
                        ],
                        "individual": {
                            "reference": "Practitioner/eOyFJ.PiGBcbhr3T1oyJZ1A3",
                            "type": "Practitioner",
                            "display": "Physician Surgery, MD"
                        }
                    },
                    {
                        "type": [
                            {
                                "coding": [
                                    {
                                        "system": "http://hl7.org/fhir/v3/ParticipationType",
                                        "code": "ATND",
                                        "display": "attender"
                                    }
                                ],
                                "text": "attender"
                            }
                        ],
                        "individual": {
                            "reference": "Practitioner/eOyFJ.PiGBcbhr3T1oyJZ1A3",
                            "type": "Practitioner",
                            "display": "Physician Surgery, MD"
                        }
                    }
                ],
                "period": {
                    "start": "2013-11-15",
                    "end": "2013-11-15"
                },
                "location": [
                    {
                        "location": {
                            "reference": "Location/eih1L3clnoL-Odea34LokKYlHPndLwGjYudOa4y6QHvk3",
                            "display": "EMH Main Operating Room"
                        }
                    },
                    {
                        "location": {
                            "reference": "Location/eih1L3clnoL-Odea34LokKYlHPndLwGjYudOa4y6QHvk3",
                            "display": "EMH Main Operating Room"
                        }
                    },
                    {
                        "location": {
                            "reference": "Location/eQSOrLdbVrMRc68KBcTBG4A3",
                            "display": "Epic Hospital System"
                        }
                    }
                ]
            },
            "search": {
                "mode": "match"
            }
        },
        {
            "link": [
                {
                    "relation": "self",
                    "url": "https://appmarket.epic.com/interconnect-amcurprd-oauth/api/FHIR/R4/Encounter/eq8b9H5iOvODTxzxW9Cywlg3"
                }
            ],
            "fullUrl": "https://appmarket.epic.com/interconnect-amcurprd-oauth/api/FHIR/R4/Encounter/eq8b9H5iOvODTxzxW9Cywlg3",
            "resource": {
                "resourceType": "Encounter",
                "id": "eq8b9H5iOvODTxzxW9Cywlg3",
                "identifier": [
                    {
                        "use": "usual",
                        "system": "urn:oid:1.2.840.114350.1.13.0.1.7.3.698084.8",
                        "value": "11903"
                    }
                ],
                "status": "in-progress",
                "class": {
                    "system": "urn:oid:1.2.840.114350.1.72.1.7.7.10.696784.13260",
                    "code": "3",
                    "display": "Admission"
                },
                "type": [
                    {
                        "coding": [
                            {
                                "system": "urn:oid:1.2.840.114350.1.13.0.1.7.10.698084.10110",
                                "code": "108",
                                "display": "Surgery Admit"
                            }
                        ],
                        "text": "Surgery Admit"
                    },
                    {
                        "coding": [
                            {
                                "system": "urn:oid:1.2.840.114350.1.13.0.1.7.10.698084.30",
                                "code": "3",
                                "display": "Hospital Encounter"
                            }
                        ],
                        "text": "Hospital Encounter"
                    },
                    {
                        "coding": [
                            {
                                "system": "urn:oid:1.2.840.114350.1.13.0.1.7.10.698084.18875",
                                "code": "3",
                                "display": "Elective"
                            }
                        ],
                        "text": "Elective"
                    }
                ],
                "serviceType": {
                    "coding": [
                        {
                            "system": "urn:oid:1.2.840.114350.1.13.0.1.7.10.698084.18886",
                            "code": "124",
                            "display": "General Surgery"
                        }
                    ],
                    "text": "General Surgery"
                },
                "subject": {
                    "reference": "Patient/eYg3-1aJmCMq-umIIq2Njxw3",
                    "display": "Anesthesia, Abby"
                },
                "participant": [
                    {
                        "type": [
                            {
                                "coding": [
                                    {
                                        "system": "http://hl7.org/fhir/v3/ParticipationType",
                                        "code": "ADM",
                                        "display": "admitter"
                                    }
                                ],
                                "text": "admitter"
                            }
                        ],
                        "individual": {
                            "reference": "Practitioner/eOyFJ.PiGBcbhr3T1oyJZ1A3",
                            "type": "Practitioner",
                            "display": "Physician Surgery, MD"
                        }
                    },
                    {
                        "type": [
                            {
                                "coding": [
                                    {
                                        "system": "http://hl7.org/fhir/v3/ParticipationType",
                                        "code": "ATND",
                                        "display": "attender"
                                    }
                                ],
                                "text": "attender"
                            }
                        ],
                        "period": {
                            "start": "2013-11-16T17:38:24Z"
                        },
                        "individual": {
                            "reference": "Practitioner/eOyFJ.PiGBcbhr3T1oyJZ1A3",
                            "type": "Practitioner",
                            "display": "Physician Surgery, MD"
                        }
                    },
                    {
                        "extension": [
                            {
                                "valueCodeableConcept": {
                                    "coding": [
                                        {
                                            "system": "urn:oid:1.2.840.114350.1.13.0.1.7.4.698084.18832",
                                            "code": "17",
                                            "display": "Internal Medicine"
                                        }
                                    ],
                                    "text": "Internal Medicine"
                                },
                                "url": "http://open.epic.com/FHIR/StructureDefinition/extension/specialty"
                            }
                        ],
                        "type": [
                            {
                                "coding": [
                                    {
                                        "system": "urn:oid:1.2.840.114350.1.13.0.1.7.10.698084.18869",
                                        "code": "Consult MD",
                                        "display": "Consulting Physician"
                                    }
                                ],
                                "text": "Consulting Physician"
                            }
                        ],
                        "period": {
                            "start": "2021-04-26T15:48:07Z"
                        },
                        "individual": {
                            "reference": "Practitioner/eL1L-oNoU.ge1wuK4r40bCQ3",
                            "type": "Practitioner",
                            "display": "Inluupip Inpatient, MD"
                        }
                    },
                    {
                        "extension": [
                            {
                                "valueCodeableConcept": {
                                    "coding": [
                                        {
                                            "system": "urn:oid:1.2.840.114350.1.13.0.1.7.4.698084.18832",
                                            "code": "4",
                                            "display": "Cardiology"
                                        }
                                    ],
                                    "text": "Cardiology"
                                },
                                "url": "http://open.epic.com/FHIR/StructureDefinition/extension/specialty"
                            }
                        ],
                        "type": [
                            {
                                "coding": [
                                    {
                                        "system": "urn:oid:1.2.840.114350.1.13.0.1.7.10.698084.18869",
                                        "code": "Consult MD",
                                        "display": "Consulting Physician"
                                    }
                                ],
                                "text": "Consulting Physician"
                            }
                        ],
                        "period": {
                            "start": "2021-04-26T15:52:22Z"
                        },
                        "individual": {
                            "reference": "Practitioner/eQrwRLD0xL4xMwya0FS-T-w3",
                            "type": "Practitioner",
                            "display": "Inluupcard Cardiology, MD"
                        }
                    }
                ],
                "period": {
                    "start": "2013-11-16T17:38:24Z"
                },
                "account": [
                    {
                        "identifier": {
                            "system": "urn:oid:1.2.840.114350.1.13.0.1.7.2.726582",
                            "value": "751"
                        },
                        "display": "ANESTHESIA,ABBY"
                    }
                ],
                "hospitalization": {
                    "extension": [
                        {
                            "valueDateTime": "2013-11-16T17:38:24Z",
                            "url": "http://open.epic.com/FHIR/StructureDefinition/extension/observation-datetime"
                        }
                    ],
                    "admitSource": {
                        "coding": [
                            {
                                "system": "urn:oid:1.2.840.114350.1.13.0.1.7.10.698084.10310",
                                "code": "4",
                                "display": "Hospital (Acute Care Facility)"
                            }
                        ],
                        "text": "Hospital (Acute Care Facility)"
                    }
                },
                "location": [
                    {
                        "location": {
                            "reference": "Location/eO-3e71xq6A5Xp7leBMrw5X-8sAl6UHIF91p7maQKFdU3",
                            "display": "EMH Medical Surgical"
                        },
                        "period": {
                            "start": "2013-11-16T17:38:00Z",
                            "end": "2013-11-17T16:00:00Z"
                        }
                    },
                    {
                        "location": {
                            "reference": "Location/eO-3e71xq6A5Xp7leBMrw5X-8sAl6UHIF91p7maQKFdU3",
                            "display": "EMH Medical Surgical"
                        },
                        "period": {
                            "start": "2013-11-17T16:00:00Z"
                        }
                    },
                    {
                        "location": {
                            "reference": "Location/eO-3e71xq6A5Xp7leBMrw5X-8sAl6UHIF91p7maQKFdU3",
                            "display": "EMH Medical Surgical"
                        }
                    },
                    {
                        "location": {
                            "reference": "Location/eQSOrLdbVrMRc68KBcTBG4A3",
                            "display": "Epic Hospital System"
                        }
                    },
                    {
                        "location": {
                            "reference": "Location/e3.YW4hLydOpJG8JIS.r-4A3",
                            "display": "123"
                        },
                        "physicalType": {
                            "coding": [
                                {
                                    "system": "http://terminology.hl7.org/CodeSystem/location-physical-type",
                                    "code": "ro",
                                    "display": "Room"
                                }
                            ],
                            "text": "Room"
                        }
                    },
                    {
                        "location": {
                            "identifier": {
                                "system": "urn:oid:1.2.840.114350.1.13.0.1.7.2.666968",
                                "value": "187"
                            },
                            "display": "123-02"
                        },
                        "physicalType": {
                            "coding": [
                                {
                                    "system": "http://terminology.hl7.org/CodeSystem/location-physical-type",
                                    "code": "bd",
                                    "display": "Bed"
                                }
                            ],
                            "text": "Bed"
                        }
                    }
                ]
            },
            "search": {
                "mode": "match"
            }
        },
        {
            "link": [
                {
                    "relation": "self",
                    "url": "https://appmarket.epic.com/interconnect-amcurprd-oauth/api/FHIR/R4/Encounter/e1kFToK4Z8yIpdDO51eUqgA3"
                }
            ],
            "fullUrl": "https://appmarket.epic.com/interconnect-amcurprd-oauth/api/FHIR/R4/Encounter/e1kFToK4Z8yIpdDO51eUqgA3",
            "resource": {
                "resourceType": "Encounter",
                "id": "e1kFToK4Z8yIpdDO51eUqgA3",
                "identifier": [
                    {
                        "use": "usual",
                        "system": "urn:oid:1.2.840.114350.1.13.0.1.7.3.698084.8",
                        "value": "11908"
                    }
                ],
                "status": "unknown",
                "class": {
                    "system": "urn:oid:1.2.840.114350.1.72.1.7.7.10.696784.13260",
                    "code": "10",
                    "display": "Surgery Log"
                },
                "type": [
                    {
                        "coding": [
                            {
                                "system": "urn:oid:1.2.840.114350.1.13.0.1.7.10.698084.30",
                                "code": "51",
                                "display": "Surgery"
                            }
                        ],
                        "text": "Surgery"
                    }
                ],
                "subject": {
                    "reference": "Patient/eYg3-1aJmCMq-umIIq2Njxw3",
                    "display": "Anesthesia, Abby"
                },
                "participant": [
                    {
                        "type": [
                            {
                                "coding": [
                                    {
                                        "system": "http://hl7.org/fhir/v3/ParticipationType",
                                        "code": "REF",
                                        "display": "referrer"
                                    }
                                ],
                                "text": "referrer"
                            }
                        ],
                        "individual": {
                            "reference": "Practitioner/e7D.u41Zv3VPrLmUp-mWnrQ3",
                            "type": "Practitioner",
                            "display": "Physician Champion, MD"
                        }
                    },
                    {
                        "individual": {
                            "reference": "Practitioner/e7D.u41Zv3VPrLmUp-mWnrQ3",
                            "type": "Practitioner",
                            "display": "Physician Champion, MD"
                        }
                    }
                ],
                "period": {
                    "start": "2013-11-13T17:15:00Z",
                    "end": "2013-11-13T18:30:00Z"
                },
                "location": [
                    {
                        "location": {
                            "reference": "Location/efR3SIdpRKF9BFBM5qakt9F5X1mWxjiAGu2hNTKbqOdI3",
                            "display": "EMH Operating Room"
                        }
                    }
                ],
                "partOf": {
                    "reference": "Encounter/e-Ju7csNvjY1MRtQqWjk6bA3",
                    "identifier": {
                        "use": "usual",
                        "system": "urn:oid:1.2.840.114350.1.13.0.1.7.3.698084.8",
                        "value": "11912"
                    },
                    "display": "Hospital Encounter"
                }
            },
            "search": {
                "mode": "match"
            }
        },
        {
            "link": [
                {
                    "relation": "self",
                    "url": "https://appmarket.epic.com/interconnect-amcurprd-oauth/api/FHIR/R4/Encounter/e-Ju7csNvjY1MRtQqWjk6bA3"
                }
            ],
            "fullUrl": "https://appmarket.epic.com/interconnect-amcurprd-oauth/api/FHIR/R4/Encounter/e-Ju7csNvjY1MRtQqWjk6bA3",
            "resource": {
                "resourceType": "Encounter",
                "id": "e-Ju7csNvjY1MRtQqWjk6bA3",
                "identifier": [
                    {
                        "use": "usual",
                        "system": "urn:oid:1.2.840.114350.1.13.0.1.7.3.698084.8",
                        "value": "11912"
                    }
                ],
                "status": "cancelled",
                "class": {
                    "system": "urn:oid:1.2.840.114350.1.72.1.7.7.10.696784.13260",
                    "code": "2",
                    "display": "Preadmission"
                },
                "type": [
                    {
                        "coding": [
                            {
                                "system": "urn:oid:1.2.840.114350.1.13.0.1.7.10.698084.10110",
                                "code": "108",
                                "display": "Surgery Admit"
                            }
                        ],
                        "text": "Surgery Admit"
                    },
                    {
                        "coding": [
                            {
                                "system": "urn:oid:1.2.840.114350.1.13.0.1.7.10.698084.30",
                                "code": "3",
                                "display": "Hospital Encounter"
                            }
                        ],
                        "text": "Hospital Encounter"
                    }
                ],
                "serviceType": {
                    "coding": [
                        {
                            "system": "urn:oid:1.2.840.114350.1.13.0.1.7.10.698084.18886",
                            "code": "124",
                            "display": "General Surgery"
                        }
                    ],
                    "text": "General Surgery"
                },
                "subject": {
                    "reference": "Patient/eYg3-1aJmCMq-umIIq2Njxw3",
                    "display": "Anesthesia, Abby"
                },
                "participant": [
                    {
                        "type": [
                            {
                                "coding": [
                                    {
                                        "system": "http://hl7.org/fhir/v3/ParticipationType",
                                        "code": "ADM",
                                        "display": "admitter"
                                    }
                                ],
                                "text": "admitter"
                            }
                        ],
                        "individual": {
                            "reference": "Practitioner/eOyFJ.PiGBcbhr3T1oyJZ1A3",
                            "type": "Practitioner",
                            "display": "Physician Surgery, MD"
                        }
                    },
                    {
                        "type": [
                            {
                                "coding": [
                                    {
                                        "system": "http://hl7.org/fhir/v3/ParticipationType",
                                        "code": "ATND",
                                        "display": "attender"
                                    }
                                ],
                                "text": "attender"
                            }
                        ],
                        "individual": {
                            "reference": "Practitioner/eOyFJ.PiGBcbhr3T1oyJZ1A3",
                            "type": "Practitioner",
                            "display": "Physician Surgery, MD"
                        }
                    }
                ],
                "period": {
                    "start": "2011-04-10T16:15:00Z",
                    "end": "2011-04-10T16:15:00Z"
                },
                "location": [
                    {
                        "location": {
                            "reference": "Location/eih1L3clnoL-Odea34LokKYlHPndLwGjYudOa4y6QHvk3",
                            "display": "EMH Main Operating Room"
                        }
                    },
                    {
                        "location": {
                            "reference": "Location/eih1L3clnoL-Odea34LokKYlHPndLwGjYudOa4y6QHvk3",
                            "display": "EMH Main Operating Room"
                        }
                    },
                    {
                        "location": {
                            "reference": "Location/eQSOrLdbVrMRc68KBcTBG4A3",
                            "display": "Epic Hospital System"
                        }
                    }
                ]
            },
            "search": {
                "mode": "match"
            }
        },
        {
            "link": [
                {
                    "relation": "self",
                    "url": "https://appmarket.epic.com/interconnect-amcurprd-oauth/api/FHIR/R4/Encounter/eZoBoN7Vnr31AMRuLzyMpug3"
                }
            ],
            "fullUrl": "https://appmarket.epic.com/interconnect-amcurprd-oauth/api/FHIR/R4/Encounter/eZoBoN7Vnr31AMRuLzyMpug3",
            "resource": {
                "resourceType": "Encounter",
                "id": "eZoBoN7Vnr31AMRuLzyMpug3",
                "identifier": [
                    {
                        "use": "usual",
                        "system": "urn:oid:1.2.840.114350.1.13.0.1.7.3.698084.8",
                        "value": "11914"
                    }
                ],
                "status": "unknown",
                "class": {
                    "system": "urn:oid:1.2.840.114350.1.72.1.7.7.10.696784.13260",
                    "code": "10",
                    "display": "Surgery Log"
                },
                "type": [
                    {
                        "coding": [
                            {
                                "system": "urn:oid:1.2.840.114350.1.13.0.1.7.10.698084.30",
                                "code": "51",
                                "display": "Surgery"
                            }
                        ],
                        "text": "Surgery"
                    }
                ],
                "subject": {
                    "reference": "Patient/eYg3-1aJmCMq-umIIq2Njxw3",
                    "display": "Anesthesia, Abby"
                },
                "participant": [
                    {
                        "individual": {
                            "reference": "Practitioner/e7D.u41Zv3VPrLmUp-mWnrQ3",
                            "type": "Practitioner",
                            "display": "Physician Champion, MD"
                        }
                    }
                ],
                "period": {
                    "start": "2013-11-09T15:45:00Z",
                    "end": "2013-11-09T17:00:00Z"
                },
                "location": [
                    {
                        "location": {
                            "reference": "Location/efR3SIdpRKF9BFBM5qakt9F5X1mWxjiAGu2hNTKbqOdI3",
                            "display": "EMH Operating Room"
                        }
                    }
                ],
                "partOf": {
                    "reference": "Encounter/e7UNT98mLAJY7TLJAe5k6Kg3",
                    "identifier": {
                        "use": "usual",
                        "system": "urn:oid:1.2.840.114350.1.13.0.1.7.3.698084.8",
                        "value": "11902"
                    },
                    "display": "Hospital Encounter"
                }
            },
            "search": {
                "mode": "match"
            }
        },
        {
            "link": [
                {
                    "relation": "self",
                    "url": "https://appmarket.epic.com/interconnect-amcurprd-oauth/api/FHIR/R4/Encounter/e64OOR8Z.E5kiytg2xMtD0w3"
                }
            ],
            "fullUrl": "https://appmarket.epic.com/interconnect-amcurprd-oauth/api/FHIR/R4/Encounter/e64OOR8Z.E5kiytg2xMtD0w3",
            "resource": {
                "resourceType": "Encounter",
                "id": "e64OOR8Z.E5kiytg2xMtD0w3",
                "identifier": [
                    {
                        "use": "usual",
                        "system": "urn:oid:1.2.840.114350.1.13.0.1.7.3.698084.8",
                        "value": "11919"
                    }
                ],
                "status": "finished",
                "class": {
                    "system": "urn:oid:1.2.840.114350.1.72.1.7.7.10.696784.13260",
                    "code": "6",
                    "display": "Discharge"
                },
                "type": [
                    {
                        "coding": [
                            {
                                "system": "urn:oid:1.2.840.114350.1.13.0.1.7.10.698084.10110",
                                "code": "108",
                                "display": "Surgery Admit"
                            }
                        ],
                        "text": "Surgery Admit"
                    },
                    {
                        "coding": [
                            {
                                "system": "urn:oid:1.2.840.114350.1.13.0.1.7.10.698084.30",
                                "code": "3",
                                "display": "Hospital Encounter"
                            }
                        ],
                        "text": "Hospital Encounter"
                    },
                    {
                        "coding": [
                            {
                                "system": "urn:oid:1.2.840.114350.1.13.0.1.7.10.698084.18875",
                                "code": "3",
                                "display": "Elective"
                            }
                        ],
                        "text": "Elective"
                    }
                ],
                "serviceType": {
                    "coding": [
                        {
                            "system": "urn:oid:1.2.840.114350.1.13.0.1.7.10.698084.18886",
                            "code": "124",
                            "display": "General Surgery"
                        }
                    ],
                    "text": "General Surgery"
                },
                "subject": {
                    "reference": "Patient/eYg3-1aJmCMq-umIIq2Njxw3",
                    "display": "Anesthesia, Abby"
                },
                "participant": [
                    {
                        "type": [
                            {
                                "coding": [
                                    {
                                        "system": "http://hl7.org/fhir/v3/ParticipationType",
                                        "code": "ADM",
                                        "display": "admitter"
                                    }
                                ],
                                "text": "admitter"
                            }
                        ],
                        "individual": {
                            "reference": "Practitioner/eOyFJ.PiGBcbhr3T1oyJZ1A3",
                            "type": "Practitioner",
                            "display": "Physician Surgery, MD"
                        }
                    },
                    {
                        "type": [
                            {
                                "coding": [
                                    {
                                        "system": "http://hl7.org/fhir/v3/ParticipationType",
                                        "code": "ATND",
                                        "display": "attender"
                                    }
                                ],
                                "text": "attender"
                            }
                        ],
                        "period": {
                            "start": "2010-12-26T03:32:00Z",
                            "end": "2010-12-26T03:53:00Z"
                        },
                        "individual": {
                            "reference": "Practitioner/eOyFJ.PiGBcbhr3T1oyJZ1A3",
                            "type": "Practitioner",
                            "display": "Physician Surgery, MD"
                        }
                    }
                ],
                "period": {
                    "start": "2010-12-26T03:32:00Z",
                    "end": "2010-12-26T03:53:00Z"
                },
                "account": [
                    {
                        "identifier": {
                            "system": "urn:oid:1.2.840.114350.1.13.0.1.7.2.726582",
                            "value": "750"
                        },
                        "display": "ANESTHESIA,ABBY"
                    }
                ],
                "hospitalization": {
                    "extension": [
                        {
                            "valueDateTime": "2010-12-26T03:32:00Z",
                            "url": "http://open.epic.com/FHIR/StructureDefinition/extension/ip-admit-datetime"
                        }
                    ],
                    "admitSource": {
                        "coding": [
                            {
                                "system": "urn:oid:1.2.840.114350.1.13.0.1.7.10.698084.10310",
                                "code": "2",
                                "display": "Physician or Clinic Office"
                            }
                        ],
                        "text": "Physician or Clinic Office"
                    },
                    "dischargeDisposition": {
                        "coding": [
                            {
                                "system": "urn:oid:1.2.840.114350.1.13.0.1.7.10.698084.18888",
                                "code": "1",
                                "display": "Home or Self Care"
                            }
                        ],
                        "text": "Home or Self Care"
                    }
                },
                "location": [
                    {
                        "location": {
                            "reference": "Location/eih1L3clnoL-Odea34LokKYlHPndLwGjYudOa4y6QHvk3",
                            "display": "EMH Main Operating Room"
                        },
                        "period": {
                            "start": "2010-12-26T03:32:00Z",
                            "end": "2010-12-26T03:53:00Z"
                        }
                    },
                    {
                        "location": {
                            "reference": "Location/eih1L3clnoL-Odea34LokKYlHPndLwGjYudOa4y6QHvk3",
                            "display": "EMH Main Operating Room"
                        }
                    },
                    {
                        "location": {
                            "reference": "Location/eQSOrLdbVrMRc68KBcTBG4A3",
                            "display": "Epic Hospital System"
                        }
                    },
                    {
                        "location": {
                            "reference": "Location/ew.LarBtoCiHPOHV6-1EOyg3"
                        },
                        "physicalType": {
                            "coding": [
                                {
                                    "system": "http://terminology.hl7.org/CodeSystem/location-physical-type",
                                    "code": "ro",
                                    "display": "Room"
                                }
                            ],
                            "text": "Room"
                        }
                    },
                    {
                        "location": {
                            "identifier": {
                                "system": "urn:oid:1.2.840.114350.1.13.0.1.7.2.666968",
                                "value": "319"
                            }
                        },
                        "physicalType": {
                            "coding": [
                                {
                                    "system": "http://terminology.hl7.org/CodeSystem/location-physical-type",
                                    "code": "bd",
                                    "display": "Bed"
                                }
                            ],
                            "text": "Bed"
                        }
                    }
                ]
            },
            "search": {
                "mode": "match"
            }
        },
        {
            "link": [
                {
                    "relation": "self",
                    "url": "https://appmarket.epic.com/interconnect-amcurprd-oauth/api/FHIR/R4/Encounter/ezY41zflHPpTnE4ulO5Ja.g3"
                }
            ],
            "fullUrl": "https://appmarket.epic.com/interconnect-amcurprd-oauth/api/FHIR/R4/Encounter/ezY41zflHPpTnE4ulO5Ja.g3",
            "resource": {
                "resourceType": "Encounter",
                "id": "ezY41zflHPpTnE4ulO5Ja.g3",
                "identifier": [
                    {
                        "use": "usual",
                        "system": "urn:oid:1.2.840.114350.1.13.0.1.7.3.698084.8",
                        "value": "11920"
                    }
                ],
                "status": "unknown",
                "class": {
                    "system": "urn:oid:1.2.840.114350.1.72.1.7.7.10.696784.13260",
                    "code": "10",
                    "display": "Surgery Log"
                },
                "type": [
                    {
                        "coding": [
                            {
                                "system": "urn:oid:1.2.840.114350.1.13.0.1.7.10.698084.30",
                                "code": "51",
                                "display": "Surgery"
                            }
                        ],
                        "text": "Surgery"
                    }
                ],
                "subject": {
                    "reference": "Patient/eYg3-1aJmCMq-umIIq2Njxw3",
                    "display": "Anesthesia, Abby"
                },
                "participant": [
                    {
                        "individual": {
                            "reference": "Practitioner/e7D.u41Zv3VPrLmUp-mWnrQ3",
                            "type": "Practitioner",
                            "display": "Physician Champion, MD"
                        }
                    }
                ],
                "period": {
                    "start": "2010-12-25T13:40:00Z",
                    "end": "2010-12-25T15:40:00Z"
                },
                "location": [
                    {
                        "location": {
                            "reference": "Location/efR3SIdpRKF9BFBM5qakt9F5X1mWxjiAGu2hNTKbqOdI3",
                            "display": "EMH Operating Room"
                        }
                    }
                ],
                "partOf": {
                    "reference": "Encounter/e64OOR8Z.E5kiytg2xMtD0w3",
                    "identifier": {
                        "use": "usual",
                        "system": "urn:oid:1.2.840.114350.1.13.0.1.7.3.698084.8",
                        "value": "11919"
                    },
                    "display": "Hospital Encounter"
                }
            },
            "search": {
                "mode": "match"
            }
        },
        {
            "link": [
                {
                    "relation": "self",
                    "url": "https://appmarket.epic.com/interconnect-amcurprd-oauth/api/FHIR/R4/Encounter/e-Ju7csNvjY1MRtQqWjk6bA3"
                }
            ],
            "fullUrl": "https://appmarket.epic.com/interconnect-amcurprd-oauth/api/FHIR/R4/Encounter/e-Ju7csNvjY1MRtQqWjk6bA3",
            "resource": {
                "resourceType": "Encounter",
                "id": "e-Ju7csNvjY1MRtQqWjk6bA3",
                "identifier": [
                    {
                        "use": "usual",
                        "system": "urn:oid:1.2.840.114350.1.13.0.1.7.3.698084.8",
                        "value": "11912"
                    }
                ],
                "status": "cancelled",
                "class": {
                    "system": "urn:oid:1.2.840.114350.1.72.1.7.7.10.696784.13260",
                    "code": "2",
                    "display": "Preadmission"
                },
                "type": [
                    {
                        "coding": [
                            {
                                "system": "urn:oid:1.2.840.114350.1.13.0.1.7.10.698084.10110",
                                "code": "108",
                                "display": "Surgery Admit"
                            }
                        ],
                        "text": "Surgery Admit"
                    },
                    {
                        "coding": [
                            {
                                "system": "urn:oid:1.2.840.114350.1.13.0.1.7.10.698084.30",
                                "code": "3",
                                "display": "Hospital Encounter"
                            }
                        ],
                        "text": "Hospital Encounter"
                    }
                ],
                "serviceType": {
                    "coding": [
                        {
                            "system": "urn:oid:1.2.840.114350.1.13.0.1.7.10.698084.18886",
                            "code": "124",
                            "display": "General Surgery"
                        }
                    ],
                    "text": "General Surgery"
                },
                "subject": {
                    "reference": "Patient/eYg3-1aJmCMq-umIIq2Njxw3",
                    "display": "Anesthesia, Abby"
                },
                "participant": [
                    {
                        "type": [
                            {
                                "coding": [
                                    {
                                        "system": "http://hl7.org/fhir/v3/ParticipationType",
                                        "code": "ADM",
                                        "display": "admitter"
                                    }
                                ],
                                "text": "admitter"
                            }
                        ],
                        "individual": {
                            "reference": "Practitioner/eOyFJ.PiGBcbhr3T1oyJZ1A3",
                            "type": "Practitioner",
                            "display": "Physician Surgery, MD"
                        }
                    },
                    {
                        "type": [
                            {
                                "coding": [
                                    {
                                        "system": "http://hl7.org/fhir/v3/ParticipationType",
                                        "code": "ATND",
                                        "display": "attender"
                                    }
                                ],
                                "text": "attender"
                            }
                        ],
                        "individual": {
                            "reference": "Practitioner/eOyFJ.PiGBcbhr3T1oyJZ1A3",
                            "type": "Practitioner",
                            "display": "Physician Surgery, MD"
                        }
                    }
                ],
                "period": {
                    "start": "2011-04-10T16:15:00Z",
                    "end": "2011-04-10T16:15:00Z"
                },
                "location": [
                    {
                        "location": {
                            "reference": "Location/eih1L3clnoL-Odea34LokKYlHPndLwGjYudOa4y6QHvk3",
                            "display": "EMH Main Operating Room"
                        }
                    },
                    {
                        "location": {
                            "reference": "Location/eih1L3clnoL-Odea34LokKYlHPndLwGjYudOa4y6QHvk3",
                            "display": "EMH Main Operating Room"
                        }
                    },
                    {
                        "location": {
                            "reference": "Location/eQSOrLdbVrMRc68KBcTBG4A3",
                            "display": "Epic Hospital System"
                        }
                    }
                ]
            },
            "search": {
                "mode": "include"
            }
        },
        {
            "link": [
                {
                    "relation": "self",
                    "url": "https://appmarket.epic.com/interconnect-amcurprd-oauth/api/FHIR/R4/Encounter/e64OOR8Z.E5kiytg2xMtD0w3"
                }
            ],
            "fullUrl": "https://appmarket.epic.com/interconnect-amcurprd-oauth/api/FHIR/R4/Encounter/e64OOR8Z.E5kiytg2xMtD0w3",
            "resource": {
                "resourceType": "Encounter",
                "id": "e64OOR8Z.E5kiytg2xMtD0w3",
                "identifier": [
                    {
                        "use": "usual",
                        "system": "urn:oid:1.2.840.114350.1.13.0.1.7.3.698084.8",
                        "value": "11919"
                    }
                ],
                "status": "finished",
                "class": {
                    "system": "urn:oid:1.2.840.114350.1.72.1.7.7.10.696784.13260",
                    "code": "6",
                    "display": "Discharge"
                },
                "type": [
                    {
                        "coding": [
                            {
                                "system": "urn:oid:1.2.840.114350.1.13.0.1.7.10.698084.10110",
                                "code": "108",
                                "display": "Surgery Admit"
                            }
                        ],
                        "text": "Surgery Admit"
                    },
                    {
                        "coding": [
                            {
                                "system": "urn:oid:1.2.840.114350.1.13.0.1.7.10.698084.30",
                                "code": "3",
                                "display": "Hospital Encounter"
                            }
                        ],
                        "text": "Hospital Encounter"
                    },
                    {
                        "coding": [
                            {
                                "system": "urn:oid:1.2.840.114350.1.13.0.1.7.10.698084.18875",
                                "code": "3",
                                "display": "Elective"
                            }
                        ],
                        "text": "Elective"
                    }
                ],
                "serviceType": {
                    "coding": [
                        {
                            "system": "urn:oid:1.2.840.114350.1.13.0.1.7.10.698084.18886",
                            "code": "124",
                            "display": "General Surgery"
                        }
                    ],
                    "text": "General Surgery"
                },
                "subject": {
                    "reference": "Patient/eYg3-1aJmCMq-umIIq2Njxw3",
                    "display": "Anesthesia, Abby"
                },
                "participant": [
                    {
                        "type": [
                            {
                                "coding": [
                                    {
                                        "system": "http://hl7.org/fhir/v3/ParticipationType",
                                        "code": "ADM",
                                        "display": "admitter"
                                    }
                                ],
                                "text": "admitter"
                            }
                        ],
                        "individual": {
                            "reference": "Practitioner/eOyFJ.PiGBcbhr3T1oyJZ1A3",
                            "type": "Practitioner",
                            "display": "Physician Surgery, MD"
                        }
                    },
                    {
                        "type": [
                            {
                                "coding": [
                                    {
                                        "system": "http://hl7.org/fhir/v3/ParticipationType",
                                        "code": "ATND",
                                        "display": "attender"
                                    }
                                ],
                                "text": "attender"
                            }
                        ],
                        "period": {
                            "start": "2010-12-26T03:32:00Z",
                            "end": "2010-12-26T03:53:00Z"
                        },
                        "individual": {
                            "reference": "Practitioner/eOyFJ.PiGBcbhr3T1oyJZ1A3",
                            "type": "Practitioner",
                            "display": "Physician Surgery, MD"
                        }
                    }
                ],
                "period": {
                    "start": "2010-12-26T03:32:00Z",
                    "end": "2010-12-26T03:53:00Z"
                },
                "account": [
                    {
                        "identifier": {
                            "system": "urn:oid:1.2.840.114350.1.13.0.1.7.2.726582",
                            "value": "750"
                        },
                        "display": "ANESTHESIA,ABBY"
                    }
                ],
                "hospitalization": {
                    "extension": [
                        {
                            "valueDateTime": "2010-12-26T03:32:00Z",
                            "url": "http://open.epic.com/FHIR/StructureDefinition/extension/ip-admit-datetime"
                        }
                    ],
                    "admitSource": {
                        "coding": [
                            {
                                "system": "urn:oid:1.2.840.114350.1.13.0.1.7.10.698084.10310",
                                "code": "2",
                                "display": "Physician or Clinic Office"
                            }
                        ],
                        "text": "Physician or Clinic Office"
                    },
                    "dischargeDisposition": {
                        "coding": [
                            {
                                "system": "urn:oid:1.2.840.114350.1.13.0.1.7.10.698084.18888",
                                "code": "1",
                                "display": "Home or Self Care"
                            }
                        ],
                        "text": "Home or Self Care"
                    }
                },
                "location": [
                    {
                        "location": {
                            "reference": "Location/eih1L3clnoL-Odea34LokKYlHPndLwGjYudOa4y6QHvk3",
                            "display": "EMH Main Operating Room"
                        },
                        "period": {
                            "start": "2010-12-26T03:32:00Z",
                            "end": "2010-12-26T03:53:00Z"
                        }
                    },
                    {
                        "location": {
                            "reference": "Location/eih1L3clnoL-Odea34LokKYlHPndLwGjYudOa4y6QHvk3",
                            "display": "EMH Main Operating Room"
                        }
                    },
                    {
                        "location": {
                            "reference": "Location/eQSOrLdbVrMRc68KBcTBG4A3",
                            "display": "Epic Hospital System"
                        }
                    },
                    {
                        "location": {
                            "reference": "Location/ew.LarBtoCiHPOHV6-1EOyg3"
                        },
                        "physicalType": {
                            "coding": [
                                {
                                    "system": "http://terminology.hl7.org/CodeSystem/location-physical-type",
                                    "code": "ro",
                                    "display": "Room"
                                }
                            ],
                            "text": "Room"
                        }
                    },
                    {
                        "location": {
                            "identifier": {
                                "system": "urn:oid:1.2.840.114350.1.13.0.1.7.2.666968",
                                "value": "319"
                            }
                        },
                        "physicalType": {
                            "coding": [
                                {
                                    "system": "http://terminology.hl7.org/CodeSystem/location-physical-type",
                                    "code": "bd",
                                    "display": "Bed"
                                }
                            ],
                            "text": "Bed"
                        }
                    }
                ]
            },
            "search": {
                "mode": "include"
            }
        },
        {
            "link": [
                {
                    "relation": "self",
                    "url": "https://appmarket.epic.com/interconnect-amcurprd-oauth/api/FHIR/R4/Encounter/e7UNT98mLAJY7TLJAe5k6Kg3"
                }
            ],
            "fullUrl": "https://appmarket.epic.com/interconnect-amcurprd-oauth/api/FHIR/R4/Encounter/e7UNT98mLAJY7TLJAe5k6Kg3",
            "resource": {
                "resourceType": "Encounter",
                "id": "e7UNT98mLAJY7TLJAe5k6Kg3",
                "identifier": [
                    {
                        "use": "usual",
                        "system": "urn:oid:1.2.840.114350.1.13.0.1.7.3.698084.8",
                        "value": "11902"
                    }
                ],
                "status": "cancelled",
                "class": {
                    "system": "urn:oid:1.2.840.114350.1.72.1.7.7.10.696784.13260",
                    "code": "2",
                    "display": "Preadmission"
                },
                "type": [
                    {
                        "coding": [
                            {
                                "system": "urn:oid:1.2.840.114350.1.13.0.1.7.10.698084.10110",
                                "code": "106",
                                "display": "Hospital Outpatient Surgery"
                            }
                        ],
                        "text": "Hospital Outpatient Surgery"
                    },
                    {
                        "coding": [
                            {
                                "system": "urn:oid:1.2.840.114350.1.13.0.1.7.10.698084.30",
                                "code": "3",
                                "display": "Hospital Encounter"
                            }
                        ],
                        "text": "Hospital Encounter"
                    }
                ],
                "serviceType": {
                    "coding": [
                        {
                            "system": "urn:oid:1.2.840.114350.1.13.0.1.7.10.698084.18886",
                            "code": "124",
                            "display": "General Surgery"
                        }
                    ],
                    "text": "General Surgery"
                },
                "subject": {
                    "reference": "Patient/eYg3-1aJmCMq-umIIq2Njxw3",
                    "display": "Anesthesia, Abby"
                },
                "participant": [
                    {
                        "type": [
                            {
                                "coding": [
                                    {
                                        "system": "http://hl7.org/fhir/v3/ParticipationType",
                                        "code": "ADM",
                                        "display": "admitter"
                                    }
                                ],
                                "text": "admitter"
                            }
                        ],
                        "individual": {
                            "reference": "Practitioner/eOyFJ.PiGBcbhr3T1oyJZ1A3",
                            "type": "Practitioner",
                            "display": "Physician Surgery, MD"
                        }
                    },
                    {
                        "type": [
                            {
                                "coding": [
                                    {
                                        "system": "http://hl7.org/fhir/v3/ParticipationType",
                                        "code": "ATND",
                                        "display": "attender"
                                    }
                                ],
                                "text": "attender"
                            }
                        ],
                        "individual": {
                            "reference": "Practitioner/eOyFJ.PiGBcbhr3T1oyJZ1A3",
                            "type": "Practitioner",
                            "display": "Physician Surgery, MD"
                        }
                    }
                ],
                "period": {
                    "start": "2013-11-15",
                    "end": "2013-11-15"
                },
                "location": [
                    {
                        "location": {
                            "reference": "Location/eih1L3clnoL-Odea34LokKYlHPndLwGjYudOa4y6QHvk3",
                            "display": "EMH Main Operating Room"
                        }
                    },
                    {
                        "location": {
                            "reference": "Location/eih1L3clnoL-Odea34LokKYlHPndLwGjYudOa4y6QHvk3",
                            "display": "EMH Main Operating Room"
                        }
                    },
                    {
                        "location": {
                            "reference": "Location/eQSOrLdbVrMRc68KBcTBG4A3",
                            "display": "Epic Hospital System"
                        }
                    }
                ]
            },
            "search": {
                "mode": "include"
            }
        },
        {
            "link": [
                {
                    "relation": "self",
                    "url": "https://appmarket.epic.com/interconnect-amcurprd-oauth/api/FHIR/R4/Encounter/eIZ3ZrCYQPKHsrjYiKOQ3Pw3"
                }
            ],
            "fullUrl": "https://appmarket.epic.com/interconnect-amcurprd-oauth/api/FHIR/R4/Encounter/eIZ3ZrCYQPKHsrjYiKOQ3Pw3",
            "resource": {
                "resourceType": "Encounter",
                "id": "eIZ3ZrCYQPKHsrjYiKOQ3Pw3",
                "identifier": [
                    {
                        "use": "usual",
                        "system": "urn:oid:1.2.840.114350.1.13.0.1.7.3.698084.8",
                        "value": "38937"
                    }
                ],
                "status": "planned",
                "class": {
                    "system": "urn:oid:1.2.840.114350.1.72.1.7.7.10.696784.13260",
                    "code": "2",
                    "display": "Preadmission"
                },
                "type": [
                    {
                        "coding": [
                            {
                                "system": "urn:oid:1.2.840.114350.1.13.0.1.7.10.698084.10110",
                                "code": "108",
                                "display": "Surgery Admit"
                            }
                        ],
                        "text": "Surgery Admit"
                    },
                    {
                        "coding": [
                            {
                                "system": "urn:oid:1.2.840.114350.1.13.0.1.7.10.698084.30",
                                "code": "3",
                                "display": "Hospital Encounter"
                            }
                        ],
                        "text": "Hospital Encounter"
                    }
                ],
                "serviceType": {
                    "coding": [
                        {
                            "system": "urn:oid:1.2.840.114350.1.13.0.1.7.10.698084.18886",
                            "code": "124",
                            "display": "General Surgery"
                        }
                    ],
                    "text": "General Surgery"
                },
                "subject": {
                    "reference": "Patient/eYg3-1aJmCMq-umIIq2Njxw3",
                    "display": "Anesthesia, Abby"
                },
                "participant": [
                    {
                        "type": [
                            {
                                "coding": [
                                    {
                                        "system": "http://hl7.org/fhir/v3/ParticipationType",
                                        "code": "ADM",
                                        "display": "admitter"
                                    }
                                ],
                                "text": "admitter"
                            }
                        ],
                        "individual": {
                            "reference": "Practitioner/e5gDdAc2zcsKxfyCQYCkJiw3",
                            "type": "Practitioner",
                            "display": "Surgeon Trauma, MD"
                        }
                    },
                    {
                        "type": [
                            {
                                "coding": [
                                    {
                                        "system": "http://hl7.org/fhir/v3/ParticipationType",
                                        "code": "ATND",
                                        "display": "attender"
                                    }
                                ],
                                "text": "attender"
                            }
                        ],
                        "individual": {
                            "reference": "Practitioner/e5gDdAc2zcsKxfyCQYCkJiw3",
                            "type": "Practitioner",
                            "display": "Surgeon Trauma, MD"
                        }
                    },
                    {
                        "extension": [
                            {
                                "valueCodeableConcept": {
                                    "coding": [
                                        {
                                            "system": "urn:oid:1.2.840.114350.1.13.0.1.7.4.698084.18832",
                                            "code": "137",
                                            "display": "Trauma Surgery"
                                        }
                                    ],
                                    "text": "Trauma Surgery"
                                },
                                "url": "http://open.epic.com/FHIR/StructureDefinition/extension/specialty"
                            }
                        ],
                        "type": [
                            {
                                "coding": [
                                    {
                                        "system": "urn:oid:1.2.840.114350.1.13.0.1.7.10.698084.18869",
                                        "code": "Surgeon",
                                        "display": "Surgeon"
                                    }
                                ],
                                "text": "Surgeon"
                            }
                        ],
                        "period": {
                            "start": "2022-06-10T21:55:48Z"
                        },
                        "individual": {
                            "reference": "Practitioner/e5gDdAc2zcsKxfyCQYCkJiw3",
                            "type": "Practitioner",
                            "display": "Surgeon Trauma, MD"
                        }
                    }
                ],
                "period": {
                    "start": "2022-11-01"
                },
                "reasonCode": [
                    {
                        "coding": [
                            {
                                "system": "http://snomed.info/sct",
                                "code": "208232005",
                                "display": "Open fracture scapula, coracoid (disorder)"
                            }
                        ],
                        "text": "Open displaced fracture of coracoid process of right shoulder, initial encounter"
                    }
                ],
                "account": [
                    {
                        "identifier": {
                            "system": "urn:oid:1.2.840.114350.1.13.0.1.7.2.726582",
                            "value": "1001253"
                        },
                        "display": "ANESTHESIA,ABBY"
                    }
                ],
                "location": [
                    {
                        "location": {
                            "reference": "Location/eih1L3clnoL-Odea34LokKYlHPndLwGjYudOa4y6QHvk3",
                            "display": "EMH Main Operating Room"
                        }
                    },
                    {
                        "location": {
                            "reference": "Location/eih1L3clnoL-Odea34LokKYlHPndLwGjYudOa4y6QHvk3",
                            "display": "EMH Main Operating Room"
                        }
                    },
                    {
                        "location": {
                            "reference": "Location/eQSOrLdbVrMRc68KBcTBG4A3",
                            "display": "Epic Hospital System"
                        }
                    }
                ]
            },
            "search": {
                "mode": "include"
            }
        },
        {
            "link": [
                {
                    "relation": "self",
                    "url": "https://appmarket.epic.com/interconnect-amcurprd-oauth/api/FHIR/R4/Patient/eYg3-1aJmCMq-umIIq2Njxw3"
                }
            ],
            "fullUrl": "https://appmarket.epic.com/interconnect-amcurprd-oauth/api/FHIR/R4/Patient/eYg3-1aJmCMq-umIIq2Njxw3",
            "resource": {
                "resourceType": "Patient",
                "id": "eYg3-1aJmCMq-umIIq2Njxw3",
                "extension": [
                    {
                        "extension": [
                            {
                                "valueCoding": {
                                    "system": "urn:oid:2.16.840.1.113883.6.238",
                                    "code": "2028-9",
                                    "display": "Asian"
                                },
                                "url": "ombCategory"
                            },
                            {
                                "valueString": "Other Asian",
                                "url": "text"
                            }
                        ],
                        "url": "http://hl7.org/fhir/us/core/StructureDefinition/us-core-race"
                    },
                    {
                        "extension": [
                            {
                                "valueCoding": {
                                    "system": "urn:oid:2.16.840.1.113883.6.238",
                                    "code": "2186-5",
                                    "display": "Not Hispanic or Latino"
                                },
                                "url": "ombCategory"
                            },
                            {
                                "valueString": "Not Hispanic or Latino",
                                "url": "text"
                            }
                        ],
                        "url": "http://hl7.org/fhir/us/core/StructureDefinition/us-core-ethnicity"
                    },
                    {
                        "valueCodeableConcept": {
                            "coding": [
                                {
                                    "system": "urn:oid:1.2.840.114350.1.13.0.1.7.10.698084.130.657370.19999000",
                                    "code": "female",
                                    "display": "female"
                                }
                            ]
                        },
                        "url": "http://open.epic.com/FHIR/StructureDefinition/extension/legal-sex"
                    },
                    {
                        "valueCodeableConcept": {
                            "coding": [
                                {
                                    "system": "urn:oid:1.2.840.114350.1.13.0.1.7.10.698084.130.657370.19999000",
                                    "code": "female",
                                    "display": "female"
                                }
                            ]
                        },
                        "url": "http://open.epic.com/FHIR/StructureDefinition/extension/sex-for-clinical-use"
                    },
                    {
                        "valueCode": "F",
                        "url": "http://hl7.org/fhir/us/core/StructureDefinition/us-core-birthsex"
                    }
                ],
                "identifier": [
                    {
                        "use": "usual",
                        "system": "urn:oid:2.16.840.1.113883.4.1",
                        "value": "566-51-9257"
                    },
                    {
                        "use": "usual",
                        "type": {
                            "text": "CEID"
                        },
                        "system": "urn:epic:apporchard.curprod",
                        "value": "AO1RBCP6QKVP5KL"
                    },
                    {
                        "use": "usual",
                        "type": {
                            "text": "EPIC"
                        },
                        "system": "urn:oid:1.2.840.114350.1.1",
                        "value": "E3396"
                    },
                    {
                        "use": "usual",
                        "type": {
                            "text": "EXTERNAL"
                        },
                        "system": "urn:oid:1.2.840.114350.1.13.0.1.7.2.698084",
                        "value": "Z5111"
                    },
                    {
                        "use": "usual",
                        "type": {
                            "text": "FHIR"
                        },
                        "system": "http://open.epic.com/FHIR/StructureDefinition/patient-dstu2-fhir-id",
                        "value": "TtdBQKkYpAP5sCWcz9f79zjAi.vjsA.aRxcXcNINdw1UB"
                    },
                    {
                        "use": "usual",
                        "type": {
                            "text": "FHIR STU3"
                        },
                        "system": "http://open.epic.com/FHIR/StructureDefinition/patient-fhir-id",
                        "value": "eYg3-1aJmCMq-umIIq2Njxw3"
                    },
                    {
                        "use": "usual",
                        "type": {
                            "text": "INTERNAL"
                        },
                        "system": "urn:oid:1.2.840.114350.1.13.0.1.7.2.698084",
                        "value": "     Z5111"
                    },
                    {
                        "use": "usual",
                        "type": {
                            "text": "MRN"
                        },
                        "system": "urn:oid:1.2.840.114350.1.13.0.1.7.5.737384.14",
                        "value": "203150"
                    },
                    {
                        "use": "usual",
                        "type": {
                            "text": "MYCHARTLOGIN"
                        },
                        "system": "urn:oid:1.2.840.114350.1.13.0.1.7.3.878082.110",
                        "value": "ANESTHESIAABBY"
                    },
                    {
                        "use": "usual",
                        "type": {
                            "text": "WPRINTERNAL"
                        },
                        "system": "urn:oid:1.2.840.114350.1.13.0.1.7.2.878082",
                        "value": "52"
                    },
                    {
                        "use": "usual",
                        "system": "https://open.epic.com/FHIR/StructureDefinition/PayerMemberId",
                        "value": "720093350"
                    }
                ],
                "active": true,
                "name": [
                    {
                        "use": "official",
                        "text": "Abby Anesthesia",
                        "family": "Anesthesia",
                        "given": [
                            "Abby"
                        ]
                    },
                    {
                        "use": "usual",
                        "text": "Abby Anesthesia",
                        "family": "Anesthesia",
                        "given": [
                            "Abby"
                        ]
                    }
                ],
                "telecom": [
                    {
                        "system": "phone",
                        "value": "112-505-1121",
                        "use": "home"
                    }
                ],
                "gender": "female",
                "birthDate": "1965-12-24",
                "deceasedBoolean": false,
                "address": [
                    {
                        "use": "old",
                        "line": [
                            "112 Anesthesia Drive"
                        ],
                        "city": "LAKE BLUFF",
                        "district": "LAKE",
                        "state": "IL",
                        "postalCode": "60044",
                        "country": "US"
                    },
                    {
                        "use": "home",
                        "line": [
                            "112 Anesthesia Drive"
                        ],
                        "city": "LAKE BLUFF",
                        "district": "LAKE",
                        "state": "IL",
                        "postalCode": "60044",
                        "country": "US"
                    }
                ],
                "maritalStatus": {
                    "text": "Married"
                },
                "contact": [
                    {
                        "relationship": [
                            {
                                "coding": [
                                    {
                                        "system": "http://terminology.hl7.org/CodeSystem/v2-0131",
                                        "code": "C",
                                        "display": "Emergency Contact"
                                    },
                                    {
                                        "system": "urn:oid:1.2.840.114350.1.13.0.1.7.4.827665.1000",
                                        "code": "17",
                                        "display": "Spouse"
                                    }
                                ],
                                "text": "Spouse"
                            }
                        ],
                        "name": {
                            "use": "usual",
                            "text": "Tom"
                        },
                        "telecom": [
                            {
                                "system": "phone",
                                "value": "112-505-1121",
                                "use": "home"
                            }
                        ],
                        "address": {
                            "use": "home",
                            "line": [
                                "112 Anesthesia Drive"
                            ],
                            "city": "LAKE BLUFF",
                            "district": "LAKE",
                            "state": "IL",
                            "postalCode": "60044",
                            "country": "US"
                        }
                    },
                    {
                        "relationship": [
                            {
                                "coding": [
                                    {
                                        "system": "http://terminology.hl7.org/CodeSystem/v2-0131",
                                        "code": "E",
                                        "display": "Employer"
                                    }
                                ]
                            }
                        ],
                        "telecom": [
                            {
                                "system": "phone",
                                "value": "608-271-9000",
                                "use": "work"
                            }
                        ],
                        "address": {
                            "use": "work",
                            "line": [
                                "1979 MILKY WAY"
                            ],
                            "city": "VERONA",
                            "district": "DANE",
                            "state": "WI",
                            "postalCode": "53593",
                            "country": "US"
                        },
                        "organization": {
                            "display": "Ehs Generic Employer"
                        }
                    }
                ],
                "generalPractitioner": [
                    {
                        "reference": "Practitioner/e7D.u41Zv3VPrLmUp-mWnrQ3",
                        "type": "Practitioner",
                        "display": "Physician Champion, MD"
                    }
                ],
                "managingOrganization": {
                    "reference": "Organization/enRyWnSP963FYDpoks4NHOA3",
                    "display": "Epic Hospital System"
                }
            },
            "search": {
                "mode": "include"
            }
        },
        {
            "link": [
                {
                    "relation": "self",
                    "url": "https://appmarket.epic.com/interconnect-amcurprd-oauth/api/FHIR/R4/Encounter/eg5KmF2hBHWya0DNppQWejw3"
                }
            ],
            "fullUrl": "https://appmarket.epic.com/interconnect-amcurprd-oauth/api/FHIR/R4/Encounter/eg5KmF2hBHWya0DNppQWejw3",
            "resource": {
                "resourceType": "Encounter",
                "id": "eg5KmF2hBHWya0DNppQWejw3",
                "identifier": [
                    {
                        "use": "usual",
                        "system": "urn:oid:1.2.840.114350.1.13.0.1.7.3.698084.8",
                        "value": "38934"
                    }
                ],
                "status": "planned",
                "class": {
                    "system": "urn:oid:1.2.840.114350.1.72.1.7.7.10.696784.13260",
                    "code": "2",
                    "display": "Preadmission"
                },
                "type": [
                    {
                        "coding": [
                            {
                                "system": "urn:oid:1.2.840.114350.1.13.0.1.7.10.698084.10110",
                                "code": "108",
                                "display": "Surgery Admit"
                            }
                        ],
                        "text": "Surgery Admit"
                    },
                    {
                        "coding": [
                            {
                                "system": "urn:oid:1.2.840.114350.1.13.0.1.7.10.698084.30",
                                "code": "3",
                                "display": "Hospital Encounter"
                            }
                        ],
                        "text": "Hospital Encounter"
                    }
                ],
                "serviceType": {
                    "coding": [
                        {
                            "system": "urn:oid:1.2.840.114350.1.13.0.1.7.10.698084.18886",
                            "code": "124",
                            "display": "General Surgery"
                        }
                    ],
                    "text": "General Surgery"
                },
                "subject": {
                    "reference": "Patient/eYg3-1aJmCMq-umIIq2Njxw3",
                    "display": "Anesthesia, Abby"
                },
                "participant": [
                    {
                        "type": [
                            {
                                "coding": [
                                    {
                                        "system": "http://hl7.org/fhir/v3/ParticipationType",
                                        "code": "ADM",
                                        "display": "admitter"
                                    }
                                ],
                                "text": "admitter"
                            }
                        ],
                        "individual": {
                            "reference": "Practitioner/eEqlw.bq.AtAr58nQUHl8.Q3",
                            "type": "Practitioner",
                            "display": "Physician Bariatric Surgery, MD"
                        }
                    },
                    {
                        "type": [
                            {
                                "coding": [
                                    {
                                        "system": "http://hl7.org/fhir/v3/ParticipationType",
                                        "code": "ATND",
                                        "display": "attender"
                                    }
                                ],
                                "text": "attender"
                            }
                        ],
                        "individual": {
                            "reference": "Practitioner/eEqlw.bq.AtAr58nQUHl8.Q3",
                            "type": "Practitioner",
                            "display": "Physician Bariatric Surgery, MD"
                        }
                    },
                    {
                        "extension": [
                            {
                                "valueCodeableConcept": {
                                    "coding": [
                                        {
                                            "system": "urn:oid:1.2.840.114350.1.13.0.1.7.4.698084.18832",
                                            "code": "74",
                                            "display": "Bariatrics"
                                        }
                                    ],
                                    "text": "Bariatrics"
                                },
                                "url": "http://open.epic.com/FHIR/StructureDefinition/extension/specialty"
                            }
                        ],
                        "type": [
                            {
                                "coding": [
                                    {
                                        "system": "urn:oid:1.2.840.114350.1.13.0.1.7.10.698084.18869",
                                        "code": "Surgeon",
                                        "display": "Surgeon"
                                    }
                                ],
                                "text": "Surgeon"
                            }
                        ],
                        "period": {
                            "start": "2022-06-10T21:53:48Z"
                        },
                        "individual": {
                            "reference": "Practitioner/eEqlw.bq.AtAr58nQUHl8.Q3",
                            "type": "Practitioner",
                            "display": "Physician Bariatric Surgery, MD"
                        }
                    }
                ],
                "period": {
                    "start": "2022-09-01T16:45:00Z",
                    "end": "2173-09-27T17:45:00Z"
                },
                "reasonCode": [
                    {
                        "coding": [
                            {
                                "system": "http://snomed.info/sct",
                                "code": "266433003",
                                "display": "Gastroesophageal reflux disease with esophagitis (disorder)"
                            }
                        ],
                        "text": "Gastroesophageal reflux disease with esophagitis"
                    }
                ],
                "account": [
                    {
                        "identifier": {
                            "system": "urn:oid:1.2.840.114350.1.13.0.1.7.2.726582",
                            "value": "1001254"
                        },
                        "display": "ANESTHESIA,ABBY"
                    }
                ],
                "location": [
                    {
                        "location": {
                            "reference": "Location/eih1L3clnoL-Odea34LokKYlHPndLwGjYudOa4y6QHvk3",
                            "display": "EMH Main Operating Room"
                        }
                    },
                    {
                        "location": {
                            "reference": "Location/eih1L3clnoL-Odea34LokKYlHPndLwGjYudOa4y6QHvk3",
                            "display": "EMH Main Operating Room"
                        }
                    },
                    {
                        "location": {
                            "reference": "Location/eQSOrLdbVrMRc68KBcTBG4A3",
                            "display": "Epic Hospital System"
                        }
                    }
                ]
            },
            "search": {
                "mode": "include"
            }
        },
        {
            "link": [
                {
                    "relation": "self",
                    "url": "https://appmarket.epic.com/interconnect-amcurprd-oauth/api/FHIR/R4/Encounter/eq8b9H5iOvODTxzxW9Cywlg3"
                }
            ],
            "fullUrl": "https://appmarket.epic.com/interconnect-amcurprd-oauth/api/FHIR/R4/Encounter/eq8b9H5iOvODTxzxW9Cywlg3",
            "resource": {
                "resourceType": "Encounter",
                "id": "eq8b9H5iOvODTxzxW9Cywlg3",
                "identifier": [
                    {
                        "use": "usual",
                        "system": "urn:oid:1.2.840.114350.1.13.0.1.7.3.698084.8",
                        "value": "11903"
                    }
                ],
                "status": "in-progress",
                "class": {
                    "system": "urn:oid:1.2.840.114350.1.72.1.7.7.10.696784.13260",
                    "code": "3",
                    "display": "Admission"
                },
                "type": [
                    {
                        "coding": [
                            {
                                "system": "urn:oid:1.2.840.114350.1.13.0.1.7.10.698084.10110",
                                "code": "108",
                                "display": "Surgery Admit"
                            }
                        ],
                        "text": "Surgery Admit"
                    },
                    {
                        "coding": [
                            {
                                "system": "urn:oid:1.2.840.114350.1.13.0.1.7.10.698084.30",
                                "code": "3",
                                "display": "Hospital Encounter"
                            }
                        ],
                        "text": "Hospital Encounter"
                    },
                    {
                        "coding": [
                            {
                                "system": "urn:oid:1.2.840.114350.1.13.0.1.7.10.698084.18875",
                                "code": "3",
                                "display": "Elective"
                            }
                        ],
                        "text": "Elective"
                    }
                ],
                "serviceType": {
                    "coding": [
                        {
                            "system": "urn:oid:1.2.840.114350.1.13.0.1.7.10.698084.18886",
                            "code": "124",
                            "display": "General Surgery"
                        }
                    ],
                    "text": "General Surgery"
                },
                "subject": {
                    "reference": "Patient/eYg3-1aJmCMq-umIIq2Njxw3",
                    "display": "Anesthesia, Abby"
                },
                "participant": [
                    {
                        "type": [
                            {
                                "coding": [
                                    {
                                        "system": "http://hl7.org/fhir/v3/ParticipationType",
                                        "code": "ADM",
                                        "display": "admitter"
                                    }
                                ],
                                "text": "admitter"
                            }
                        ],
                        "individual": {
                            "reference": "Practitioner/eOyFJ.PiGBcbhr3T1oyJZ1A3",
                            "type": "Practitioner",
                            "display": "Physician Surgery, MD"
                        }
                    },
                    {
                        "type": [
                            {
                                "coding": [
                                    {
                                        "system": "http://hl7.org/fhir/v3/ParticipationType",
                                        "code": "ATND",
                                        "display": "attender"
                                    }
                                ],
                                "text": "attender"
                            }
                        ],
                        "period": {
                            "start": "2013-11-16T17:38:24Z"
                        },
                        "individual": {
                            "reference": "Practitioner/eOyFJ.PiGBcbhr3T1oyJZ1A3",
                            "type": "Practitioner",
                            "display": "Physician Surgery, MD"
                        }
                    },
                    {
                        "extension": [
                            {
                                "valueCodeableConcept": {
                                    "coding": [
                                        {
                                            "system": "urn:oid:1.2.840.114350.1.13.0.1.7.4.698084.18832",
                                            "code": "17",
                                            "display": "Internal Medicine"
                                        }
                                    ],
                                    "text": "Internal Medicine"
                                },
                                "url": "http://open.epic.com/FHIR/StructureDefinition/extension/specialty"
                            }
                        ],
                        "type": [
                            {
                                "coding": [
                                    {
                                        "system": "urn:oid:1.2.840.114350.1.13.0.1.7.10.698084.18869",
                                        "code": "Consult MD",
                                        "display": "Consulting Physician"
                                    }
                                ],
                                "text": "Consulting Physician"
                            }
                        ],
                        "period": {
                            "start": "2021-04-26T15:48:07Z"
                        },
                        "individual": {
                            "reference": "Practitioner/eL1L-oNoU.ge1wuK4r40bCQ3",
                            "type": "Practitioner",
                            "display": "Inluupip Inpatient, MD"
                        }
                    },
                    {
                        "extension": [
                            {
                                "valueCodeableConcept": {
                                    "coding": [
                                        {
                                            "system": "urn:oid:1.2.840.114350.1.13.0.1.7.4.698084.18832",
                                            "code": "4",
                                            "display": "Cardiology"
                                        }
                                    ],
                                    "text": "Cardiology"
                                },
                                "url": "http://open.epic.com/FHIR/StructureDefinition/extension/specialty"
                            }
                        ],
                        "type": [
                            {
                                "coding": [
                                    {
                                        "system": "urn:oid:1.2.840.114350.1.13.0.1.7.10.698084.18869",
                                        "code": "Consult MD",
                                        "display": "Consulting Physician"
                                    }
                                ],
                                "text": "Consulting Physician"
                            }
                        ],
                        "period": {
                            "start": "2021-04-26T15:52:22Z"
                        },
                        "individual": {
                            "reference": "Practitioner/eQrwRLD0xL4xMwya0FS-T-w3",
                            "type": "Practitioner",
                            "display": "Inluupcard Cardiology, MD"
                        }
                    }
                ],
                "period": {
                    "start": "2013-11-16T17:38:24Z"
                },
                "account": [
                    {
                        "identifier": {
                            "system": "urn:oid:1.2.840.114350.1.13.0.1.7.2.726582",
                            "value": "751"
                        },
                        "display": "ANESTHESIA,ABBY"
                    }
                ],
                "hospitalization": {
                    "extension": [
                        {
                            "valueDateTime": "2013-11-16T17:38:24Z",
                            "url": "http://open.epic.com/FHIR/StructureDefinition/extension/observation-datetime"
                        }
                    ],
                    "admitSource": {
                        "coding": [
                            {
                                "system": "urn:oid:1.2.840.114350.1.13.0.1.7.10.698084.10310",
                                "code": "4",
                                "display": "Hospital (Acute Care Facility)"
                            }
                        ],
                        "text": "Hospital (Acute Care Facility)"
                    }
                },
                "location": [
                    {
                        "location": {
                            "reference": "Location/eO-3e71xq6A5Xp7leBMrw5X-8sAl6UHIF91p7maQKFdU3",
                            "display": "EMH Medical Surgical"
                        },
                        "period": {
                            "start": "2013-11-16T17:38:00Z",
                            "end": "2013-11-17T16:00:00Z"
                        }
                    },
                    {
                        "location": {
                            "reference": "Location/eO-3e71xq6A5Xp7leBMrw5X-8sAl6UHIF91p7maQKFdU3",
                            "display": "EMH Medical Surgical"
                        },
                        "period": {
                            "start": "2013-11-17T16:00:00Z"
                        }
                    },
                    {
                        "location": {
                            "reference": "Location/eO-3e71xq6A5Xp7leBMrw5X-8sAl6UHIF91p7maQKFdU3",
                            "display": "EMH Medical Surgical"
                        }
                    },
                    {
                        "location": {
                            "reference": "Location/eQSOrLdbVrMRc68KBcTBG4A3",
                            "display": "Epic Hospital System"
                        }
                    },
                    {
                        "location": {
                            "reference": "Location/e3.YW4hLydOpJG8JIS.r-4A3",
                            "display": "123"
                        },
                        "physicalType": {
                            "coding": [
                                {
                                    "system": "http://terminology.hl7.org/CodeSystem/location-physical-type",
                                    "code": "ro",
                                    "display": "Room"
                                }
                            ],
                            "text": "Room"
                        }
                    },
                    {
                        "location": {
                            "identifier": {
                                "system": "urn:oid:1.2.840.114350.1.13.0.1.7.2.666968",
                                "value": "187"
                            },
                            "display": "123-02"
                        },
                        "physicalType": {
                            "coding": [
                                {
                                    "system": "http://terminology.hl7.org/CodeSystem/location-physical-type",
                                    "code": "bd",
                                    "display": "Bed"
                                }
                            ],
                            "text": "Bed"
                        }
                    }
                ]
            },
            "search": {
                "mode": "include"
            }
        }
    ]
}