{
    "resourceType": "Bundle",
    "type": "searchset",
    "total": 5,
    "link": [
        {
            "relation": "self",
            "url": "https://appmarket.epic.com/interconnect-amcurprd-oauth/api/FHIR/R4/Encounter?_include=Encounter:condition&_include=Encounter:episodeOfCare&_include=Encounter:partOf&_include=Encounter:subject&_format=json&patient=e3y8g4gNpUkNwCfgT5OhR9A3"
        }
    ],
    "entry": [
        {
            "link": [
                {
                    "relation": "self",
                    "url": "https://appmarket.epic.com/interconnect-amcurprd-oauth/api/FHIR/R4/Encounter/eYN2ccmf3Ko7psxjWLH--Tw3"
                }
            ],
            "fullUrl": "https://appmarket.epic.com/interconnect-amcurprd-oauth/api/FHIR/R4/Encounter/eYN2ccmf3Ko7psxjWLH--Tw3",
            "resource": {
                "resourceType": "Encounter",
                "id": "eYN2ccmf3Ko7psxjWLH--Tw3",
                "identifier": [
                    {
                        "use": "usual",
                        "system": "urn:oid:1.2.840.114350.1.13.0.1.7.3.698084.8",
                        "value": "2801"
                    }
                ],
                "status": "unknown",
                "class": {
                    "system": "urn:oid:1.2.840.114350.1.72.1.7.7.10.696784.13260",
                    "code": "10",
                    "display": "Surgery Log"
                },
                "type": [
                    {
                        "coding": [
                            {
                                "system": "urn:oid:1.2.840.114350.1.13.0.1.7.10.698084.30",
                                "code": "51",
                                "display": "Surgery"
                            }
                        ],
                        "text": "Surgery"
                    }
                ],
                "subject": {
                    "reference": "Patient/e3y8g4gNpUkNwCfgT5OhR9A3",
                    "display": "Zztest, Four"
                },
                "period": {
                    "start": "2013-10-16T16:20:00Z",
                    "end": "2013-10-16T17:50:00Z"
                },
                "location": [
                    {
                        "location": {
                            "reference": "Location/eeU.1OzW8Iy3LgVDVxoW5QCICi8ZwZOcHV6kp9TmrQ883",
                            "display": "EMH Gastroenterology"
                        }
                    }
                ],
                "partOf": {
                    "reference": "Encounter/eNJA92kwcrOjnYWzpXbi1dQ3",
                    "identifier": {
                        "use": "usual",
                        "system": "urn:oid:1.2.840.114350.1.13.0.1.7.3.698084.8",
                        "value": "2805"
                    },
                    "display": "Hospital Encounter"
                }
            },
            "search": {
                "mode": "match"
            }
        },
        {
            "link": [
                {
                    "relation": "self",
                    "url": "https://appmarket.epic.com/interconnect-amcurprd-oauth/api/FHIR/R4/Encounter/ef31wwhbHmVPr3ePHBBhnNw3"
                }
            ],
            "fullUrl": "https://appmarket.epic.com/interconnect-amcurprd-oauth/api/FHIR/R4/Encounter/ef31wwhbHmVPr3ePHBBhnNw3",
            "resource": {
                "resourceType": "Encounter",
                "id": "ef31wwhbHmVPr3ePHBBhnNw3",
                "identifier": [
                    {
                        "use": "usual",
                        "system": "urn:oid:1.2.840.114350.1.13.0.1.7.3.698084.8",
                        "value": "2802"
                    }
                ],
                "status": "finished",
                "class": {
                    "system": "urn:oid:1.2.840.114350.1.72.1.7.7.10.696784.13260",
                    "code": "5",
                    "display": "Appointment"
                },
                "type": [
                    {
                        "coding": [
                            {
                                "system": "urn:oid:1.2.840.114350.1.13.0.1.7.10.698084.10110",
                                "code": "101",
                                "display": "Inpatient"
                            }
                        ],
                        "text": "Inpatient"
                    },
                    {
                        "coding": [
                            {
                                "system": "urn:oid:1.2.840.114350.1.13.0.1.7.10.698084.30",
                                "code": "50",
                                "display": "Appointment"
                            }
                        ],
                        "text": "Appointment"
                    }
                ],
                "subject": {
                    "reference": "Patient/e3y8g4gNpUkNwCfgT5OhR9A3",
                    "display": "Zztest, Four"
                },
                "participant": [
                    {
                        "period": {
                            "start": "2010-05-20T23:20:00Z",
                            "end": "2010-05-20T23:50:00Z"
                        },
                        "individual": {
                            "display": "EMC MAMMO"
                        }
                    }
                ],
                "period": {
                    "start": "2010-05-20T23:20:00Z",
                    "end": "2010-05-20T23:50:00Z"
                },
                "location": [
                    {
                        "location": {
                            "reference": "Location/ed11n4-i8oztrjpHIELXPbcvQ0XhK7Rf0YuVpyGAIoPo3",
                            "display": "EMC Breast Imaging"
                        }
                    }
                ]
            },
            "search": {
                "mode": "match"
            }
        },
        {
            "link": [
                {
                    "relation": "self",
                    "url": "https://appmarket.epic.com/interconnect-amcurprd-oauth/api/FHIR/R4/Encounter/e8oJUsEs8cbitADgPCVfSfw3"
                }
            ],
            "fullUrl": "https://appmarket.epic.com/interconnect-amcurprd-oauth/api/FHIR/R4/Encounter/e8oJUsEs8cbitADgPCVfSfw3",
            "resource": {
                "resourceType": "Encounter",
                "id": "e8oJUsEs8cbitADgPCVfSfw3",
                "identifier": [
                    {
                        "use": "usual",
                        "system": "urn:oid:1.2.840.114350.1.13.0.1.7.3.698084.8",
                        "value": "2803"
                    }
                ],
                "status": "cancelled",
                "class": {
                    "system": "urn:oid:1.2.840.114350.1.72.1.7.7.10.696784.13260",
                    "code": "4",
                    "display": "HOV"
                },
                "type": [
                    {
                        "coding": [
                            {
                                "system": "urn:oid:1.2.840.114350.1.13.0.1.7.10.698084.30",
                                "code": "3",
                                "display": "Hospital Encounter"
                            }
                        ],
                        "text": "Hospital Encounter"
                    }
                ],
                "subject": {
                    "reference": "Patient/e3y8g4gNpUkNwCfgT5OhR9A3",
                    "display": "Zztest, Four"
                },
                "period": {
                    "start": "2010-01-14",
                    "end": "2010-01-14"
                },
                "location": [
                    {
                        "location": {
                            "reference": "Location/eQSOrLdbVrMRc68KBcTBG4A3",
                            "display": "Epic Hospital System"
                        }
                    }
                ]
            },
            "search": {
                "mode": "match"
            }
        },
        {
            "link": [
                {
                    "relation": "self",
                    "url": "https://appmarket.epic.com/interconnect-amcurprd-oauth/api/FHIR/R4/Encounter/eNJA92kwcrOjnYWzpXbi1dQ3"
                }
            ],
            "fullUrl": "https://appmarket.epic.com/interconnect-amcurprd-oauth/api/FHIR/R4/Encounter/eNJA92kwcrOjnYWzpXbi1dQ3",
            "resource": {
                "resourceType": "Encounter",
                "id": "eNJA92kwcrOjnYWzpXbi1dQ3",
                "identifier": [
                    {
                        "use": "usual",
                        "system": "urn:oid:1.2.840.114350.1.13.0.1.7.3.698084.8",
                        "value": "2805"
                    }
                ],
                "status": "finished",
                "class": {
                    "system": "urn:oid:1.2.840.114350.1.72.1.7.7.10.696784.13260",
                    "code": "6",
                    "display": "Discharge"
                },
                "type": [
                    {
                        "coding": [
                            {
                                "system": "urn:oid:1.2.840.114350.1.13.0.1.7.10.698084.10110",
                                "code": "101",
                                "display": "Inpatient"
                            }
                        ],
                        "text": "Inpatient"
                    },
                    {
                        "coding": [
                            {
                                "system": "urn:oid:1.2.840.114350.1.13.0.1.7.10.698084.30",
                                "code": "3",
                                "display": "Hospital Encounter"
                            }
                        ],
                        "text": "Hospital Encounter"
                    },
                    {
                        "coding": [
                            {
                                "system": "urn:oid:1.2.840.114350.1.13.0.1.7.10.698084.18875",
                                "code": "1",
                                "display": "Emergency"
                            }
                        ],
                        "text": "Emergency"
                    }
                ],
                "serviceType": {
                    "coding": [
                        {
                            "system": "urn:oid:1.2.840.114350.1.13.0.1.7.10.698084.18886",
                            "code": "111",
                            "display": "Medical ICU"
                        }
                    ],
                    "text": "Medical ICU"
                },
                "subject": {
                    "reference": "Patient/e3y8g4gNpUkNwCfgT5OhR9A3",
                    "display": "Zztest, Four"
                },
                "episodeOfCare": [
                    {
                        "reference": "EpisodeOfCare/edhNh8IxQ3MoRRX3k66GM4g3",
                        "type": "EpisodeOfCare",
                        "display": "ONCOLOGY TREATMENT"
                    }
                ],
                "participant": [
                    {
                        "type": [
                            {
                                "coding": [
                                    {
                                        "system": "http://hl7.org/fhir/v3/ParticipationType",
                                        "code": "ADM",
                                        "display": "admitter"
                                    }
                                ],
                                "text": "admitter"
                            }
                        ],
                        "individual": {
                            "reference": "Practitioner/e9s-IdXQOUVywHOVoisd6xQ3",
                            "type": "Practitioner",
                            "display": "Attending Physician Inpatient, MD"
                        }
                    },
                    {
                        "type": [
                            {
                                "coding": [
                                    {
                                        "system": "http://hl7.org/fhir/v3/ParticipationType",
                                        "code": "ATND",
                                        "display": "attender"
                                    }
                                ],
                                "text": "attender"
                            }
                        ],
                        "period": {
                            "start": "2009-03-29T18:52:00Z",
                            "end": "2009-03-30T12:19:11Z"
                        },
                        "individual": {
                            "reference": "Practitioner/e9s-IdXQOUVywHOVoisd6xQ3",
                            "type": "Practitioner",
                            "display": "Attending Physician Inpatient, MD"
                        }
                    },
                    {
                        "type": [
                            {
                                "coding": [
                                    {
                                        "system": "http://hl7.org/fhir/v3/ParticipationType",
                                        "code": "ATND",
                                        "display": "attender"
                                    }
                                ],
                                "text": "attender"
                            }
                        ],
                        "period": {
                            "start": "2009-03-30T12:19:11Z",
                            "end": "2011-05-23T23:49:00Z"
                        },
                        "individual": {
                            "reference": "Practitioner/e9s-IdXQOUVywHOVoisd6xQ3",
                            "type": "Practitioner",
                            "display": "Attending Physician Inpatient, MD"
                        }
                    }
                ],
                "period": {
                    "start": "2009-03-29T13:15:00Z",
                    "end": "2011-05-23T23:49:00Z"
                },
                "reasonCode": [
                    {
                        "coding": [
                            {
                                "system": "http://snomed.info/sct",
                                "code": "14336007",
                                "display": "Ruptured abdominal aortic aneurysm (disorder)"
                            }
                        ],
                        "text": "Abdominal aneurysm, ruptured (CMS/HCC)"
                    },
                    {
                        "coding": [
                            {
                                "system": "http://snomed.info/sct",
                                "code": "93143009",
                                "display": "Leukemia, disease (disorder)"
                            }
                        ],
                        "text": "Leukemia (CMS/HCC)"
                    }
                ],
                "diagnosis": [
                    {
                        "condition": {
                            "reference": "Condition/eGHfFAowEmGrcVx6qvBsA2g3",
                            "display": "Leukemia (CMS/HCC)"
                        }
                    }
                ],
                "account": [
                    {
                        "identifier": {
                            "system": "urn:oid:1.2.840.114350.1.13.0.1.7.2.726582",
                            "value": "243"
                        },
                        "display": "ZZTEST,FOUR"
                    }
                ],
                "hospitalization": {
                    "extension": [
                        {
                            "valueDateTime": "2009-03-29T18:53:00Z",
                            "url": "http://open.epic.com/FHIR/StructureDefinition/extension/ip-admit-datetime"
                        }
                    ],
                    "admitSource": {
                        "coding": [
                            {
                                "system": "urn:oid:1.2.840.114350.1.13.0.1.7.10.698084.10310",
                                "code": "7",
                                "display": "Emergency Room"
                            }
                        ],
                        "text": "Emergency Room"
                    },
                    "dischargeDisposition": {
                        "coding": [
                            {
                                "system": "urn:oid:1.2.840.114350.1.13.0.1.7.10.698084.18888",
                                "code": "1",
                                "display": "Home or Self Care"
                            }
                        ],
                        "text": "Home or Self Care"
                    }
                },
                "location": [
                    {
                        "location": {
                            "reference": "Location/eweKBcq8ruM-1MzZAX-A-0uj2rDm4SMniPONiaM5VGQk3",
                            "display": "EMH Emergency"
                        },
                        "period": {
                            "start": "2009-03-29T13:15:00Z",
                            "end": "2009-03-29T18:53:00Z"
                        }
                    },
                    {
                        "location": {
                            "reference": "Location/ew6bRiiIcKbo9d2tQ4dyffWV6gsk8iSoKgmSUmFU7tc83",
                            "display": "EMH GI Services"
                        },
                        "period": {
                            "start": "2009-03-29T18:53:00Z",
                            "end": "2011-05-23T23:49:00Z"
                        }
                    },
                    {
                        "location": {
                            "reference": "Location/ew6bRiiIcKbo9d2tQ4dyffWV6gsk8iSoKgmSUmFU7tc83",
                            "display": "EMH GI Services"
                        }
                    },
                    {
                        "location": {
                            "reference": "Location/eQSOrLdbVrMRc68KBcTBG4A3",
                            "display": "Epic Hospital System"
                        }
                    },
                    {
                        "location": {
                            "reference": "Location/ecNjRS096Bl197dPQqJ9TWw3",
                            "display": "GI POOL ROOM"
                        },
                        "physicalType": {
                            "coding": [
                                {
                                    "system": "http://terminology.hl7.org/CodeSystem/location-physical-type",
                                    "code": "ro",
                                    "display": "Room"
                                }
                            ],
                            "text": "Room"
                        }
                    },
                    {
                        "location": {
                            "identifier": {
                                "system": "urn:oid:1.2.840.114350.1.13.0.1.7.2.666968",
                                "value": "546"
                            },
                            "display": "GI BEDS"
                        },
                        "physicalType": {
                            "coding": [
                                {
                                    "system": "http://terminology.hl7.org/CodeSystem/location-physical-type",
                                    "code": "bd",
                                    "display": "Bed"
                                }
                            ],
                            "text": "Bed"
                        }
                    }
                ]
            },
            "search": {
                "mode": "match"
            }
        },
        {
            "link": [
                {
                    "relation": "self",
                    "url": "https://appmarket.epic.com/interconnect-amcurprd-oauth/api/FHIR/R4/Encounter/eVziNVjcZ-WRkTRq.Jq7xxg3"
                }
            ],
            "fullUrl": "https://appmarket.epic.com/interconnect-amcurprd-oauth/api/FHIR/R4/Encounter/eVziNVjcZ-WRkTRq.Jq7xxg3",
            "resource": {
                "resourceType": "Encounter",
                "id": "eVziNVjcZ-WRkTRq.Jq7xxg3",
                "identifier": [
                    {
                        "use": "usual",
                        "system": "urn:oid:1.2.840.114350.1.13.0.1.7.3.698084.8",
                        "value": "2806"
                    }
                ],
                "status": "unknown",
                "class": {
                    "system": "urn:oid:1.2.840.114350.1.72.1.7.7.10.696784.13260",
                    "code": "13",
                    "display": "Support OP Encounter"
                },
                "type": [
                    {
                        "coding": [
                            {
                                "system": "urn:oid:1.2.840.114350.1.13.0.1.7.10.698084.10110",
                                "code": "101",
                                "display": "Inpatient"
                            }
                        ],
                        "text": "Inpatient"
                    },
                    {
                        "coding": [
                            {
                                "system": "urn:oid:1.2.840.114350.1.13.0.1.7.10.698084.30",
                                "code": "115",
                                "display": "Resolute Professional Billing Hospital Prof Fee"
                            }
                        ],
                        "text": "Resolute Professional Billing Hospital Prof Fee"
                    }
                ],
                "subject": {
                    "reference": "Patient/e3y8g4gNpUkNwCfgT5OhR9A3",
                    "display": "Zztest, Four"
                },
                "participant": [
                    {
                        "extension": [
                            {
                                "valueCodeableConcept": {
                                    "coding": [
                                        {
                                            "system": "urn:oid:1.2.840.114350.1.13.0.1.7.4.698084.18832",
                                            "code": "17",
                                            "display": "Internal Medicine"
                                        }
                                    ],
                                    "text": "Internal Medicine"
                                },
                                "url": "http://open.epic.com/FHIR/StructureDefinition/extension/specialty"
                            }
                        ],
                        "period": {
                            "start": "2009-03-29T05:00:00Z",
                            "end": "2009-03-29T05:00:00Z"
                        },
                        "individual": {
                            "reference": "Practitioner/e9s-IdXQOUVywHOVoisd6xQ3",
                            "type": "Practitioner",
                            "display": "Attending Physician Inpatient, MD"
                        }
                    },
                    {
                        "extension": [
                            {
                                "valueCodeableConcept": {
                                    "coding": [
                                        {
                                            "system": "urn:oid:1.2.840.114350.1.13.0.1.7.4.698084.18832",
                                            "code": "17",
                                            "display": "Internal Medicine"
                                        }
                                    ],
                                    "text": "Internal Medicine"
                                },
                                "url": "http://open.epic.com/FHIR/StructureDefinition/extension/specialty"
                            }
                        ],
                        "period": {
                            "start": "2009-03-30T05:00:00Z",
                            "end": "2009-03-30T05:00:00Z"
                        },
                        "individual": {
                            "reference": "Practitioner/e9s-IdXQOUVywHOVoisd6xQ3",
                            "type": "Practitioner",
                            "display": "Attending Physician Inpatient, MD"
                        }
                    },
                    {
                        "individual": {
                            "type": "Practitioner"
                        }
                    },
                    {
                        "individual": {
                            "type": "Practitioner"
                        }
                    },
                    {
                        "individual": {
                            "type": "Practitioner"
                        }
                    },
                    {
                        "individual": {
                            "type": "Practitioner"
                        }
                    },
                    {
                        "individual": {
                            "type": "Practitioner"
                        }
                    },
                    {
                        "individual": {
                            "type": "Practitioner"
                        }
                    },
                    {
                        "individual": {
                            "type": "Practitioner"
                        }
                    },
                    {
                        "individual": {
                            "type": "Practitioner"
                        }
                    },
                    {
                        "individual": {
                            "type": "Practitioner"
                        }
                    },
                    {
                        "individual": {
                            "type": "Practitioner"
                        }
                    },
                    {
                        "individual": {
                            "type": "Practitioner"
                        }
                    },
                    {
                        "individual": {
                            "type": "Practitioner"
                        }
                    },
                    {
                        "individual": {
                            "type": "Practitioner"
                        }
                    },
                    {
                        "individual": {
                            "type": "Practitioner"
                        }
                    },
                    {
                        "individual": {
                            "type": "Practitioner"
                        }
                    },
                    {
                        "individual": {
                            "type": "Practitioner"
                        }
                    },
                    {
                        "individual": {
                            "type": "Practitioner"
                        }
                    },
                    {
                        "individual": {
                            "type": "Practitioner"
                        }
                    },
                    {
                        "individual": {
                            "type": "Practitioner"
                        }
                    },
                    {
                        "individual": {
                            "type": "Practitioner"
                        }
                    },
                    {
                        "individual": {
                            "type": "Practitioner"
                        }
                    },
                    {
                        "individual": {
                            "type": "Practitioner"
                        }
                    },
                    {
                        "individual": {
                            "type": "Practitioner"
                        }
                    },
                    {
                        "individual": {
                            "type": "Practitioner"
                        }
                    },
                    {
                        "individual": {
                            "type": "Practitioner"
                        }
                    },
                    {
                        "individual": {
                            "type": "Practitioner"
                        }
                    },
                    {
                        "individual": {
                            "type": "Practitioner"
                        }
                    },
                    {
                        "individual": {
                            "type": "Practitioner"
                        }
                    },
                    {
                        "individual": {
                            "type": "Practitioner"
                        }
                    },
                    {
                        "individual": {
                            "type": "Practitioner"
                        }
                    },
                    {
                        "individual": {
                            "type": "Practitioner"
                        }
                    },
                    {
                        "individual": {
                            "type": "Practitioner"
                        }
                    },
                    {
                        "individual": {
                            "type": "Practitioner"
                        }
                    },
                    {
                        "individual": {
                            "type": "Practitioner"
                        }
                    },
                    {
                        "individual": {
                            "type": "Practitioner"
                        }
                    },
                    {
                        "individual": {
                            "type": "Practitioner"
                        }
                    },
                    {
                        "individual": {
                            "type": "Practitioner"
                        }
                    },
                    {
                        "individual": {
                            "type": "Practitioner"
                        }
                    },
                    {
                        "individual": {
                            "type": "Practitioner"
                        }
                    },
                    {
                        "individual": {
                            "type": "Practitioner"
                        }
                    },
                    {
                        "individual": {
                            "type": "Practitioner"
                        }
                    },
                    {
                        "individual": {
                            "type": "Practitioner"
                        }
                    },
                    {
                        "individual": {
                            "type": "Practitioner"
                        }
                    },
                    {
                        "individual": {
                            "type": "Practitioner"
                        }
                    },
                    {
                        "individual": {
                            "type": "Practitioner"
                        }
                    },
                    {
                        "individual": {
                            "type": "Practitioner"
                        }
                    },
                    {
                        "individual": {
                            "type": "Practitioner"
                        }
                    },
                    {
                        "individual": {
                            "type": "Practitioner"
                        }
                    },
                    {
                        "individual": {
                            "type": "Practitioner"
                        }
                    },
                    {
                        "individual": {
                            "type": "Practitioner"
                        }
                    },
                    {
                        "individual": {
                            "type": "Practitioner"
                        }
                    },
                    {
                        "individual": {
                            "type": "Practitioner"
                        }
                    },
                    {
                        "individual": {
                            "type": "Practitioner"
                        }
                    },
                    {
                        "individual": {
                            "type": "Practitioner"
                        }
                    },
                    {
                        "individual": {
                            "type": "Practitioner"
                        }
                    },
                    {
                        "individual": {
                            "type": "Practitioner"
                        }
                    },
                    {
                        "individual": {
                            "type": "Practitioner"
                        }
                    },
                    {
                        "individual": {
                            "type": "Practitioner"
                        }
                    },
                    {
                        "individual": {
                            "type": "Practitioner"
                        }
                    },
                    {
                        "individual": {
                            "type": "Practitioner"
                        }
                    },
                    {
                        "individual": {
                            "type": "Practitioner"
                        }
                    },
                    {
                        "individual": {
                            "type": "Practitioner"
                        }
                    },
                    {
                        "individual": {
                            "type": "Practitioner"
                        }
                    },
                    {
                        "individual": {
                            "type": "Practitioner"
                        }
                    },
                    {
                        "individual": {
                            "type": "Practitioner"
                        }
                    },
                    {
                        "individual": {
                            "type": "Practitioner"
                        }
                    },
                    {
                        "individual": {
                            "type": "Practitioner"
                        }
                    },
                    {
                        "individual": {
                            "type": "Practitioner"
                        }
                    },
                    {
                        "individual": {
                            "type": "Practitioner"
                        }
                    },
                    {
                        "individual": {
                            "type": "Practitioner"
                        }
                    },
                    {
                        "individual": {
                            "type": "Practitioner"
                        }
                    },
                    {
                        "individual": {
                            "type": "Practitioner"
                        }
                    },
                    {
                        "individual": {
                            "type": "Practitioner"
                        }
                    },
                    {
                        "individual": {
                            "type": "Practitioner"
                        }
                    },
                    {
                        "individual": {
                            "type": "Practitioner"
                        }
                    },
                    {
                        "individual": {
                            "type": "Practitioner"
                        }
                    },
                    {
                        "individual": {
                            "type": "Practitioner"
                        }
                    },
                    {
                        "individual": {
                            "type": "Practitioner"
                        }
                    },
                    {
                        "individual": {
                            "type": "Practitioner"
                        }
                    },
                    {
                        "individual": {
                            "type": "Practitioner"
                        }
                    },
                    {
                        "individual": {
                            "type": "Practitioner"
                        }
                    },
                    {
                        "individual": {
                            "type": "Practitioner"
                        }
                    },
                    {
                        "individual": {
                            "type": "Practitioner"
                        }
                    },
                    {
                        "individual": {
                            "type": "Practitioner"
                        }
                    },
                    {
                        "individual": {
                            "type": "Practitioner"
                        }
                    },
                    {
                        "individual": {
                            "type": "Practitioner"
                        }
                    },
                    {
                        "individual": {
                            "type": "Practitioner"
                        }
                    },
                    {
                        "individual": {
                            "type": "Practitioner"
                        }
                    },
                    {
                        "individual": {
                            "type": "Practitioner"
                        }
                    },
                    {
                        "individual": {
                            "type": "Practitioner"
                        }
                    },
                    {
                        "individual": {
                            "type": "Practitioner"
                        }
                    },
                    {
                        "individual": {
                            "type": "Practitioner"
                        }
                    },
                    {
                        "individual": {
                            "type": "Practitioner"
                        }
                    },
                    {
                        "individual": {
                            "type": "Practitioner"
                        }
                    },
                    {
                        "individual": {
                            "type": "Practitioner"
                        }
                    },
                    {
                        "individual": {
                            "type": "Practitioner"
                        }
                    },
                    {
                        "individual": {
                            "type": "Practitioner"
                        }
                    },
                    {
                        "individual": {
                            "type": "Practitioner"
                        }
                    },
                    {
                        "individual": {
                            "type": "Practitioner"
                        }
                    },
                    {
                        "individual": {
                            "type": "Practitioner"
                        }
                    },
                    {
                        "individual": {
                            "type": "Practitioner"
                        }
                    },
                    {
                        "individual": {
                            "type": "Practitioner"
                        }
                    },
                    {
                        "individual": {
                            "type": "Practitioner"
                        }
                    },
                    {
                        "individual": {
                            "type": "Practitioner"
                        }
                    },
                    {
                        "individual": {
                            "type": "Practitioner"
                        }
                    },
                    {
                        "individual": {
                            "type": "Practitioner"
                        }
                    },
                    {
                        "individual": {
                            "type": "Practitioner"
                        }
                    },
                    {
                        "individual": {
                            "type": "Practitioner"
                        }
                    },
                    {
                        "individual": {
                            "type": "Practitioner"
                        }
                    },
                    {
                        "individual": {
                            "type": "Practitioner"
                        }
                    },
                    {
                        "individual": {
                            "type": "Practitioner"
                        }
                    },
                    {
                        "individual": {
                            "type": "Practitioner"
                        }
                    },
                    {
                        "individual": {
                            "type": "Practitioner"
                        }
                    },
                    {
                        "individual": {
                            "type": "Practitioner"
                        }
                    },
                    {
                        "individual": {
                            "type": "Practitioner"
                        }
                    },
                    {
                        "individual": {
                            "type": "Practitioner"
                        }
                    },
                    {
                        "individual": {
                            "type": "Practitioner"
                        }
                    },
                    {
                        "individual": {
                            "type": "Practitioner"
                        }
                    },
                    {
                        "individual": {
                            "type": "Practitioner"
                        }
                    },
                    {
                        "individual": {
                            "type": "Practitioner"
                        }
                    },
                    {
                        "individual": {
                            "type": "Practitioner"
                        }
                    },
                    {
                        "individual": {
                            "type": "Practitioner"
                        }
                    },
                    {
                        "individual": {
                            "type": "Practitioner"
                        }
                    },
                    {
                        "individual": {
                            "type": "Practitioner"
                        }
                    },
                    {
                        "individual": {
                            "type": "Practitioner"
                        }
                    },
                    {
                        "individual": {
                            "type": "Practitioner"
                        }
                    },
                    {
                        "individual": {
                            "type": "Practitioner"
                        }
                    },
                    {
                        "individual": {
                            "type": "Practitioner"
                        }
                    },
                    {
                        "individual": {
                            "type": "Practitioner"
                        }
                    },
                    {
                        "individual": {
                            "type": "Practitioner"
                        }
                    },
                    {
                        "individual": {
                            "type": "Practitioner"
                        }
                    },
                    {
                        "individual": {
                            "type": "Practitioner"
                        }
                    },
                    {
                        "individual": {
                            "type": "Practitioner"
                        }
                    },
                    {
                        "individual": {
                            "type": "Practitioner"
                        }
                    },
                    {
                        "individual": {
                            "type": "Practitioner"
                        }
                    },
                    {
                        "individual": {
                            "type": "Practitioner"
                        }
                    },
                    {
                        "individual": {
                            "type": "Practitioner"
                        }
                    },
                    {
                        "individual": {
                            "type": "Practitioner"
                        }
                    },
                    {
                        "individual": {
                            "type": "Practitioner"
                        }
                    },
                    {
                        "individual": {
                            "type": "Practitioner"
                        }
                    },
                    {
                        "individual": {
                            "type": "Practitioner"
                        }
                    },
                    {
                        "individual": {
                            "type": "Practitioner"
                        }
                    },
                    {
                        "individual": {
                            "type": "Practitioner"
                        }
                    },
                    {
                        "individual": {
                            "type": "Practitioner"
                        }
                    },
                    {
                        "individual": {
                            "type": "Practitioner"
                        }
                    },
                    {
                        "individual": {
                            "type": "Practitioner"
                        }
                    },
                    {
                        "individual": {
                            "type": "Practitioner"
                        }
                    },
                    {
                        "individual": {
                            "type": "Practitioner"
                        }
                    },
                    {
                        "individual": {
                            "type": "Practitioner"
                        }
                    },
                    {
                        "individual": {
                            "type": "Practitioner"
                        }
                    },
                    {
                        "individual": {
                            "type": "Practitioner"
                        }
                    },
                    {
                        "individual": {
                            "type": "Practitioner"
                        }
                    },
                    {
                        "individual": {
                            "type": "Practitioner"
                        }
                    },
                    {
                        "individual": {
                            "type": "Practitioner"
                        }
                    },
                    {
                        "individual": {
                            "type": "Practitioner"
                        }
                    },
                    {
                        "individual": {
                            "type": "Practitioner"
                        }
                    },
                    {
                        "individual": {
                            "type": "Practitioner"
                        }
                    },
                    {
                        "individual": {
                            "type": "Practitioner"
                        }
                    },
                    {
                        "individual": {
                            "type": "Practitioner"
                        }
                    },
                    {
                        "individual": {
                            "type": "Practitioner"
                        }
                    },
                    {
                        "individual": {
                            "type": "Practitioner"
                        }
                    },
                    {
                        "individual": {
                            "type": "Practitioner"
                        }
                    },
                    {
                        "individual": {
                            "type": "Practitioner"
                        }
                    },
                    {
                        "individual": {
                            "type": "Practitioner"
                        }
                    },
                    {
                        "individual": {
                            "type": "Practitioner"
                        }
                    },
                    {
                        "individual": {
                            "type": "Practitioner"
                        }
                    },
                    {
                        "individual": {
                            "type": "Practitioner"
                        }
                    },
                    {
                        "individual": {
                            "type": "Practitioner"
                        }
                    },
                    {
                        "individual": {
                            "type": "Practitioner"
                        }
                    },
                    {
                        "individual": {
                            "type": "Practitioner"
                        }
                    },
                    {
                        "individual": {
                            "type": "Practitioner"
                        }
                    },
                    {
                        "individual": {
                            "type": "Practitioner"
                        }
                    },
                    {
                        "individual": {
                            "type": "Practitioner"
                        }
                    },
                    {
                        "individual": {
                            "type": "Practitioner"
                        }
                    },
                    {
                        "individual": {
                            "type": "Practitioner"
                        }
                    },
                    {
                        "individual": {
                            "type": "Practitioner"
                        }
                    },
                    {
                        "individual": {
                            "type": "Practitioner"
                        }
                    },
                    {
                        "individual": {
                            "type": "Practitioner"
                        }
                    },
                    {
                        "individual": {
                            "type": "Practitioner"
                        }
                    },
                    {
                        "individual": {
                            "type": "Practitioner"
                        }
                    },
                    {
                        "individual": {
                            "type": "Practitioner"
                        }
                    },
                    {
                        "individual": {
                            "type": "Practitioner"
                        }
                    },
                    {
                        "individual": {
                            "type": "Practitioner"
                        }
                    },
                    {
                        "individual": {
                            "type": "Practitioner"
                        }
                    },
                    {
                        "individual": {
                            "type": "Practitioner"
                        }
                    },
                    {
                        "individual": {
                            "type": "Practitioner"
                        }
                    },
                    {
                        "individual": {
                            "type": "Practitioner"
                        }
                    },
                    {
                        "individual": {
                            "type": "Practitioner"
                        }
                    },
                    {
                        "individual": {
                            "type": "Practitioner"
                        }
                    },
                    {
                        "individual": {
                            "type": "Practitioner"
                        }
                    },
                    {
                        "individual": {
                            "type": "Practitioner"
                        }
                    },
                    {
                        "individual": {
                            "type": "Practitioner"
                        }
                    },
                    {
                        "individual": {
                            "type": "Practitioner"
                        }
                    },
                    {
                        "individual": {
                            "type": "Practitioner"
                        }
                    },
                    {
                        "individual": {
                            "type": "Practitioner"
                        }
                    },
                    {
                        "individual": {
                            "type": "Practitioner"
                        }
                    },
                    {
                        "individual": {
                            "type": "Practitioner"
                        }
                    },
                    {
                        "individual": {
                            "type": "Practitioner"
                        }
                    },
                    {
                        "individual": {
                            "type": "Practitioner"
                        }
                    },
                    {
                        "individual": {
                            "type": "Practitioner"
                        }
                    },
                    {
                        "individual": {
                            "type": "Practitioner"
                        }
                    },
                    {
                        "individual": {
                            "type": "Practitioner"
                        }
                    },
                    {
                        "individual": {
                            "type": "Practitioner"
                        }
                    },
                    {
                        "individual": {
                            "type": "Practitioner"
                        }
                    },
                    {
                        "individual": {
                            "type": "Practitioner"
                        }
                    },
                    {
                        "individual": {
                            "type": "Practitioner"
                        }
                    },
                    {
                        "individual": {
                            "type": "Practitioner"
                        }
                    },
                    {
                        "individual": {
                            "type": "Practitioner"
                        }
                    },
                    {
                        "individual": {
                            "type": "Practitioner"
                        }
                    },
                    {
                        "individual": {
                            "type": "Practitioner"
                        }
                    },
                    {
                        "individual": {
                            "type": "Practitioner"
                        }
                    },
                    {
                        "individual": {
                            "type": "Practitioner"
                        }
                    },
                    {
                        "individual": {
                            "type": "Practitioner"
                        }
                    },
                    {
                        "individual": {
                            "type": "Practitioner"
                        }
                    },
                    {
                        "individual": {
                            "type": "Practitioner"
                        }
                    },
                    {
                        "individual": {
                            "type": "Practitioner"
                        }
                    },
                    {
                        "individual": {
                            "type": "Practitioner"
                        }
                    },
                    {
                        "individual": {
                            "type": "Practitioner"
                        }
                    },
                    {
                        "individual": {
                            "type": "Practitioner"
                        }
                    },
                    {
                        "individual": {
                            "type": "Practitioner"
                        }
                    },
                    {
                        "individual": {
                            "type": "Practitioner"
                        }
                    },
                    {
                        "individual": {
                            "type": "Practitioner"
                        }
                    },
                    {
                        "individual": {
                            "type": "Practitioner"
                        }
                    },
                    {
                        "individual": {
                            "type": "Practitioner"
                        }
                    },
                    {
                        "individual": {
                            "type": "Practitioner"
                        }
                    },
                    {
                        "individual": {
                            "type": "Practitioner"
                        }
                    },
                    {
                        "individual": {
                            "type": "Practitioner"
                        }
                    },
                    {
                        "individual": {
                            "type": "Practitioner"
                        }
                    },
                    {
                        "individual": {
                            "type": "Practitioner"
                        }
                    },
                    {
                        "individual": {
                            "type": "Practitioner"
                        }
                    },
                    {
                        "individual": {
                            "type": "Practitioner"
                        }
                    },
                    {
                        "individual": {
                            "type": "Practitioner"
                        }
                    },
                    {
                        "individual": {
                            "type": "Practitioner"
                        }
                    },
                    {
                        "individual": {
                            "type": "Practitioner"
                        }
                    },
                    {
                        "individual": {
                            "type": "Practitioner"
                        }
                    },
                    {
                        "individual": {
                            "type": "Practitioner"
                        }
                    },
                    {
                        "individual": {
                            "type": "Practitioner"
                        }
                    },
                    {
                        "individual": {
                            "type": "Practitioner"
                        }
                    },
                    {
                        "individual": {
                            "type": "Practitioner"
                        }
                    },
                    {
                        "individual": {
                            "type": "Practitioner"
                        }
                    },
                    {
                        "individual": {
                            "type": "Practitioner"
                        }
                    },
                    {
                        "individual": {
                            "type": "Practitioner"
                        }
                    },
                    {
                        "individual": {
                            "type": "Practitioner"
                        }
                    },
                    {
                        "individual": {
                            "type": "Practitioner"
                        }
                    },
                    {
                        "individual": {
                            "type": "Practitioner"
                        }
                    },
                    {
                        "individual": {
                            "type": "Practitioner"
                        }
                    },
                    {
                        "individual": {
                            "type": "Practitioner"
                        }
                    },
                    {
                        "individual": {
                            "type": "Practitioner"
                        }
                    },
                    {
                        "individual": {
                            "type": "Practitioner"
                        }
                    },
                    {
                        "individual": {
                            "type": "Practitioner"
                        }
                    },
                    {
                        "individual": {
                            "type": "Practitioner"
                        }
                    },
                    {
                        "individual": {
                            "type": "Practitioner"
                        }
                    },
                    {
                        "individual": {
                            "type": "Practitioner"
                        }
                    },
                    {
                        "individual": {
                            "type": "Practitioner"
                        }
                    },
                    {
                        "individual": {
                            "type": "Practitioner"
                        }
                    },
                    {
                        "individual": {
                            "type": "Practitioner"
                        }
                    },
                    {
                        "individual": {
                            "type": "Practitioner"
                        }
                    },
                    {
                        "individual": {
                            "type": "Practitioner"
                        }
                    },
                    {
                        "individual": {
                            "type": "Practitioner"
                        }
                    },
                    {
                        "individual": {
                            "type": "Practitioner"
                        }
                    },
                    {
                        "individual": {
                            "type": "Practitioner"
                        }
                    },
                    {
                        "individual": {
                            "type": "Practitioner"
                        }
                    },
                    {
                        "individual": {
                            "type": "Practitioner"
                        }
                    },
                    {
                        "individual": {
                            "type": "Practitioner"
                        }
                    },
                    {
                        "individual": {
                            "type": "Practitioner"
                        }
                    },
                    {
                        "individual": {
                            "type": "Practitioner"
                        }
                    },
                    {
                        "individual": {
                            "type": "Practitioner"
                        }
                    },
                    {
                        "individual": {
                            "type": "Practitioner"
                        }
                    },
                    {
                        "individual": {
                            "type": "Practitioner"
                        }
                    },
                    {
                        "individual": {
                            "type": "Practitioner"
                        }
                    },
                    {
                        "individual": {
                            "type": "Practitioner"
                        }
                    },
                    {
                        "individual": {
                            "type": "Practitioner"
                        }
                    },
                    {
                        "individual": {
                            "type": "Practitioner"
                        }
                    },
                    {
                        "individual": {
                            "type": "Practitioner"
                        }
                    },
                    {
                        "individual": {
                            "type": "Practitioner"
                        }
                    },
                    {
                        "individual": {
                            "type": "Practitioner"
                        }
                    },
                    {
                        "individual": {
                            "type": "Practitioner"
                        }
                    },
                    {
                        "individual": {
                            "type": "Practitioner"
                        }
                    },
                    {
                        "individual": {
                            "type": "Practitioner"
                        }
                    },
                    {
                        "individual": {
                            "type": "Practitioner"
                        }
                    },
                    {
                        "individual": {
                            "type": "Practitioner"
                        }
                    },
                    {
                        "individual": {
                            "type": "Practitioner"
                        }
                    },
                    {
                        "individual": {
                            "type": "Practitioner"
                        }
                    },
                    {
                        "individual": {
                            "type": "Practitioner"
                        }
                    },
                    {
                        "individual": {
                            "type": "Practitioner"
                        }
                    },
                    {
                        "individual": {
                            "type": "Practitioner"
                        }
                    },
                    {
                        "individual": {
                            "type": "Practitioner"
                        }
                    },
                    {
                        "individual": {
                            "type": "Practitioner"
                        }
                    },
                    {
                        "individual": {
                            "type": "Practitioner"
                        }
                    },
                    {
                        "individual": {
                            "type": "Practitioner"
                        }
                    },
                    {
                        "individual": {
                            "type": "Practitioner"
                        }
                    },
                    {
                        "individual": {
                            "type": "Practitioner"
                        }
                    },
                    {
                        "individual": {
                            "type": "Practitioner"
                        }
                    },
                    {
                        "individual": {
                            "type": "Practitioner"
                        }
                    },
                    {
                        "individual": {
                            "type": "Practitioner"
                        }
                    },
                    {
                        "individual": {
                            "type": "Practitioner"
                        }
                    },
                    {
                        "individual": {
                            "type": "Practitioner"
                        }
                    },
                    {
                        "individual": {
                            "type": "Practitioner"
                        }
                    },
                    {
                        "individual": {
                            "type": "Practitioner"
                        }
                    },
                    {
                        "individual": {
                            "type": "Practitioner"
                        }
                    },
                    {
                        "individual": {
                            "type": "Practitioner"
                        }
                    },
                    {
                        "individual": {
                            "type": "Practitioner"
                        }
                    },
                    {
                        "individual": {
                            "type": "Practitioner"
                        }
                    },
                    {
                        "individual": {
                            "type": "Practitioner"
                        }
                    },
                    {
                        "individual": {
                            "type": "Practitioner"
                        }
                    },
                    {
                        "individual": {
                            "type": "Practitioner"
                        }
                    },
                    {
                        "individual": {
                            "type": "Practitioner"
                        }
                    },
                    {
                        "individual": {
                            "type": "Practitioner"
                        }
                    },
                    {
                        "individual": {
                            "type": "Practitioner"
                        }
                    },
                    {
                        "individual": {
                            "type": "Practitioner"
                        }
                    },
                    {
                        "individual": {
                            "type": "Practitioner"
                        }
                    },
                    {
                        "individual": {
                            "type": "Practitioner"
                        }
                    },
                    {
                        "individual": {
                            "type": "Practitioner"
                        }
                    },
                    {
                        "individual": {
                            "type": "Practitioner"
                        }
                    },
                    {
                        "individual": {
                            "type": "Practitioner"
                        }
                    },
                    {
                        "individual": {
                            "type": "Practitioner"
                        }
                    },
                    {
                        "individual": {
                            "type": "Practitioner"
                        }
                    },
                    {
                        "individual": {
                            "type": "Practitioner"
                        }
                    },
                    {
                        "individual": {
                            "type": "Practitioner"
                        }
                    },
                    {
                        "individual": {
                            "type": "Practitioner"
                        }
                    },
                    {
                        "individual": {
                            "type": "Practitioner"
                        }
                    },
                    {
                        "individual": {
                            "type": "Practitioner"
                        }
                    },
                    {
                        "individual": {
                            "type": "Practitioner"
                        }
                    },
                    {
                        "individual": {
                            "type": "Practitioner"
                        }
                    },
                    {
                        "individual": {
                            "type": "Practitioner"
                        }
                    },
                    {
                        "individual": {
                            "type": "Practitioner"
                        }
                    },
                    {
                        "individual": {
                            "type": "Practitioner"
                        }
                    },
                    {
                        "individual": {
                            "type": "Practitioner"
                        }
                    },
                    {
                        "individual": {
                            "type": "Practitioner"
                        }
                    },
                    {
                        "individual": {
                            "type": "Practitioner"
                        }
                    },
                    {
                        "individual": {
                            "type": "Practitioner"
                        }
                    },
                    {
                        "individual": {
                            "type": "Practitioner"
                        }
                    },
                    {
                        "individual": {
                            "type": "Practitioner"
                        }
                    },
                    {
                        "individual": {
                            "type": "Practitioner"
                        }
                    },
                    {
                        "individual": {
                            "type": "Practitioner"
                        }
                    },
                    {
                        "individual": {
                            "type": "Practitioner"
                        }
                    },
                    {
                        "individual": {
                            "type": "Practitioner"
                        }
                    },
                    {
                        "individual": {
                            "type": "Practitioner"
                        }
                    },
                    {
                        "individual": {
                            "type": "Practitioner"
                        }
                    },
                    {
                        "individual": {
                            "type": "Practitioner"
                        }
                    },
                    {
                        "individual": {
                            "type": "Practitioner"
                        }
                    },
                    {
                        "individual": {
                            "type": "Practitioner"
                        }
                    },
                    {
                        "individual": {
                            "type": "Practitioner"
                        }
                    },
                    {
                        "individual": {
                            "type": "Practitioner"
                        }
                    },
                    {
                        "individual": {
                            "type": "Practitioner"
                        }
                    },
                    {
                        "individual": {
                            "type": "Practitioner"
                        }
                    },
                    {
                        "individual": {
                            "type": "Practitioner"
                        }
                    },
                    {
                        "individual": {
                            "type": "Practitioner"
                        }
                    },
                    {
                        "individual": {
                            "type": "Practitioner"
                        }
                    },
                    {
                        "individual": {
                            "type": "Practitioner"
                        }
                    },
                    {
                        "individual": {
                            "type": "Practitioner"
                        }
                    },
                    {
                        "individual": {
                            "type": "Practitioner"
                        }
                    },
                    {
                        "individual": {
                            "type": "Practitioner"
                        }
                    },
                    {
                        "individual": {
                            "type": "Practitioner"
                        }
                    },
                    {
                        "individual": {
                            "type": "Practitioner"
                        }
                    },
                    {
                        "individual": {
                            "type": "Practitioner"
                        }
                    },
                    {
                        "individual": {
                            "type": "Practitioner"
                        }
                    },
                    {
                        "individual": {
                            "type": "Practitioner"
                        }
                    },
                    {
                        "individual": {
                            "type": "Practitioner"
                        }
                    },
                    {
                        "individual": {
                            "type": "Practitioner"
                        }
                    },
                    {
                        "individual": {
                            "type": "Practitioner"
                        }
                    },
                    {
                        "individual": {
                            "type": "Practitioner"
                        }
                    },
                    {
                        "individual": {
                            "type": "Practitioner"
                        }
                    },
                    {
                        "individual": {
                            "type": "Practitioner"
                        }
                    }
                ],
                "period": {
                    "start": "2009-03-29T05:00:00Z"
                },
                "location": [
                    {
                        "location": {
                            "reference": "Location/ezuGIy7r0eGjbSROdnPqLGrq77x5UKuC8QTsUskre3Iw3",
                            "display": "EMH Intensive Care"
                        }
                    },
                    {
                        "location": {
                            "reference": "Location/ezuGIy7r0eGjbSROdnPqLGrq77x5UKuC8QTsUskre3Iw3",
                            "display": "EMH Intensive Care"
                        }
                    },
                    {
                        "location": {
                            "reference": "Location/eBJ68ufVYJfAskzTJ5s0YNw3",
                            "display": "101"
                        },
                        "physicalType": {
                            "coding": [
                                {
                                    "system": "http://terminology.hl7.org/CodeSystem/location-physical-type",
                                    "code": "ro",
                                    "display": "Room"
                                }
                            ],
                            "text": "Room"
                        }
                    }
                ]
            },
            "search": {
                "mode": "match"
            }
        },
        {
            "link": [
                {
                    "relation": "self",
                    "url": "https://appmarket.epic.com/interconnect-amcurprd-oauth/api/FHIR/R4/Patient/e3y8g4gNpUkNwCfgT5OhR9A3"
                }
            ],
            "fullUrl": "https://appmarket.epic.com/interconnect-amcurprd-oauth/api/FHIR/R4/Patient/e3y8g4gNpUkNwCfgT5OhR9A3",
            "resource": {
                "resourceType": "Patient",
                "id": "e3y8g4gNpUkNwCfgT5OhR9A3",
                "extension": [
                    {
                        "extension": [
                            {
                                "valueCoding": {
                                    "system": "http://terminology.hl7.org/CodeSystem/v3-NullFlavor",
                                    "code": "UNK",
                                    "display": "Unknown"
                                },
                                "url": "ombCategory"
                            },
                            {
                                "valueString": "Unknown",
                                "url": "text"
                            }
                        ],
                        "url": "http://hl7.org/fhir/us/core/StructureDefinition/us-core-race"
                    },
                    {
                        "extension": [
                            {
                                "valueString": "Unknown",
                                "url": "text"
                            }
                        ],
                        "url": "http://hl7.org/fhir/us/core/StructureDefinition/us-core-ethnicity"
                    },
                    {
                        "valueCodeableConcept": {
                            "coding": [
                                {
                                    "system": "urn:oid:1.2.840.114350.1.13.0.1.7.10.698084.130.657370.19999000",
                                    "code": "female",
                                    "display": "female"
                                }
                            ]
                        },
                        "url": "http://open.epic.com/FHIR/StructureDefinition/extension/legal-sex"
                    },
                    {
                        "valueCodeableConcept": {
                            "coding": [
                                {
                                    "system": "urn:oid:1.2.840.114350.1.13.0.1.7.10.698084.130.657370.19999000",
                                    "code": "female",
                                    "display": "female"
                                }
                            ]
                        },
                        "url": "http://open.epic.com/FHIR/StructureDefinition/extension/sex-for-clinical-use"
                    },
                    {
                        "valueCode": "F",
                        "url": "http://hl7.org/fhir/us/core/StructureDefinition/us-core-birthsex"
                    }
                ],
                "identifier": [
                    {
                        "use": "usual",
                        "system": "urn:oid:2.16.840.1.113883.4.1",
                        "value": "129-49-1331"
                    },
                    {
                        "use": "usual",
                        "type": {
                            "text": "CEID"
                        },
                        "system": "urn:epic:apporchard.curprod",
                        "value": "AO1VJC35TXTG2X5"
                    },
                    {
                        "use": "usual",
                        "type": {
                            "text": "EPIC"
                        },
                        "system": "urn:oid:1.2.840.114350.1.1",
                        "value": "E2976"
                    },
                    {
                        "use": "usual",
                        "type": {
                            "text": "EXTERNAL"
                        },
                        "system": "urn:oid:1.2.840.114350.1.13.0.1.7.2.698084",
                        "value": "Z4645"
                    },
                    {
                        "use": "usual",
                        "type": {
                            "text": "FHIR"
                        },
                        "system": "http://open.epic.com/FHIR/StructureDefinition/patient-dstu2-fhir-id",
                        "value": "TWsQrOS3SZ0yRsGcmG2M9oERIuZoORHxzGONOCz9znRcB"
                    },
                    {
                        "use": "usual",
                        "type": {
                            "text": "FHIR STU3"
                        },
                        "system": "http://open.epic.com/FHIR/StructureDefinition/patient-fhir-id",
                        "value": "e3y8g4gNpUkNwCfgT5OhR9A3"
                    },
                    {
                        "use": "usual",
                        "type": {
                            "text": "INTERNAL"
                        },
                        "system": "urn:oid:1.2.840.114350.1.13.0.1.7.2.698084",
                        "value": "     Z4645"
                    },
                    {
                        "use": "usual",
                        "type": {
                            "text": "MRN"
                        },
                        "system": "urn:oid:1.2.840.114350.1.13.0.1.7.5.737384.14",
                        "value": "202741"
                    }
                ],
                "active": true,
                "name": [
                    {
                        "use": "official",
                        "text": "Four Zztest",
                        "family": "Zztest",
                        "given": [
                            "Four"
                        ]
                    },
                    {
                        "use": "usual",
                        "text": "Four Zztest",
                        "family": "Zztest",
                        "given": [
                            "Four"
                        ]
                    }
                ],
                "telecom": [
                    {
                        "system": "phone",
                        "value": "608-271-9000",
                        "use": "home"
                    }
                ],
                "gender": "female",
                "birthDate": "1948-11-26",
                "deceasedBoolean": false,
                "address": [
                    {
                        "use": "home",
                        "line": [
                            "1979 Milky Way"
                        ],
                        "city": "Verona",
                        "state": "WI",
                        "postalCode": "53593",
                        "country": "US"
                    }
                ],
                "managingOrganization": {
                    "reference": "Organization/enRyWnSP963FYDpoks4NHOA3",
                    "display": "Epic Hospital System"
                }
            },
            "search": {
                "mode": "include"
            }
        },
        {
            "link": [
                {
                    "relation": "self",
                    "url": "https://appmarket.epic.com/interconnect-amcurprd-oauth/api/FHIR/R4/Condition/eGHfFAowEmGrcVx6qvBsA2g3"
                }
            ],
            "fullUrl": "https://appmarket.epic.com/interconnect-amcurprd-oauth/api/FHIR/R4/Condition/eGHfFAowEmGrcVx6qvBsA2g3",
            "resource": {
                "resourceType": "Condition",
                "id": "eGHfFAowEmGrcVx6qvBsA2g3",
                "clinicalStatus": {
                    "coding": [
                        {
                            "system": "http://terminology.hl7.org/CodeSystem/condition-clinical",
                            "version": "4.0.0",
                            "code": "active",
                            "display": "Active"
                        }
                    ],
                    "text": "Active"
                },
                "verificationStatus": {
                    "coding": [
                        {
                            "system": "http://terminology.hl7.org/CodeSystem/condition-ver-status",
                            "version": "4.0.0",
                            "code": "confirmed",
                            "display": "Confirmed"
                        }
                    ],
                    "text": "Confirmed"
                },
                "category": [
                    {
                        "coding": [
                            {
                                "system": "http://terminology.hl7.org/CodeSystem/condition-category",
                                "code": "problem-list-item",
                                "display": "Problem List Item"
                            }
                        ],
                        "text": "Problem List Item"
                    }
                ],
                "code": {
                    "coding": [
                        {
                            "system": "http://hl7.org/fhir/sid/icd-10-cm",
                            "code": "C95.90"
                        },
                        {
                            "system": "http://snomed.info/sct",
                            "code": "93143009"
                        }
                    ],
                    "text": "Leukemia (CMS/HCC)"
                },
                "subject": {
                    "reference": "Patient/e3y8g4gNpUkNwCfgT5OhR9A3",
                    "display": "Zztest, Four"
                },
                "onsetPeriod": {
                    "start": "2011-01-04",
                    "end": "2011-01-04"
                },
                "recordedDate": "2011-01-04"
            },
            "search": {
                "mode": "include"
            }
        },
        {
            "link": [
                {
                    "relation": "self",
                    "url": "https://appmarket.epic.com/interconnect-amcurprd-oauth/api/FHIR/R4/Encounter/eNJA92kwcrOjnYWzpXbi1dQ3"
                }
            ],
            "fullUrl": "https://appmarket.epic.com/interconnect-amcurprd-oauth/api/FHIR/R4/Encounter/eNJA92kwcrOjnYWzpXbi1dQ3",
            "resource": {
                "resourceType": "Encounter",
                "id": "eNJA92kwcrOjnYWzpXbi1dQ3",
                "identifier": [
                    {
                        "use": "usual",
                        "system": "urn:oid:1.2.840.114350.1.13.0.1.7.3.698084.8",
                        "value": "2805"
                    }
                ],
                "status": "finished",
                "class": {
                    "system": "urn:oid:1.2.840.114350.1.72.1.7.7.10.696784.13260",
                    "code": "6",
                    "display": "Discharge"
                },
                "type": [
                    {
                        "coding": [
                            {
                                "system": "urn:oid:1.2.840.114350.1.13.0.1.7.10.698084.10110",
                                "code": "101",
                                "display": "Inpatient"
                            }
                        ],
                        "text": "Inpatient"
                    },
                    {
                        "coding": [
                            {
                                "system": "urn:oid:1.2.840.114350.1.13.0.1.7.10.698084.30",
                                "code": "3",
                                "display": "Hospital Encounter"
                            }
                        ],
                        "text": "Hospital Encounter"
                    },
                    {
                        "coding": [
                            {
                                "system": "urn:oid:1.2.840.114350.1.13.0.1.7.10.698084.18875",
                                "code": "1",
                                "display": "Emergency"
                            }
                        ],
                        "text": "Emergency"
                    }
                ],
                "serviceType": {
                    "coding": [
                        {
                            "system": "urn:oid:1.2.840.114350.1.13.0.1.7.10.698084.18886",
                            "code": "111",
                            "display": "Medical ICU"
                        }
                    ],
                    "text": "Medical ICU"
                },
                "subject": {
                    "reference": "Patient/e3y8g4gNpUkNwCfgT5OhR9A3",
                    "display": "Zztest, Four"
                },
                "episodeOfCare": [
                    {
                        "reference": "EpisodeOfCare/edhNh8IxQ3MoRRX3k66GM4g3",
                        "type": "EpisodeOfCare",
                        "display": "ONCOLOGY TREATMENT"
                    }
                ],
                "participant": [
                    {
                        "type": [
                            {
                                "coding": [
                                    {
                                        "system": "http://hl7.org/fhir/v3/ParticipationType",
                                        "code": "ADM",
                                        "display": "admitter"
                                    }
                                ],
                                "text": "admitter"
                            }
                        ],
                        "individual": {
                            "reference": "Practitioner/e9s-IdXQOUVywHOVoisd6xQ3",
                            "type": "Practitioner",
                            "display": "Attending Physician Inpatient, MD"
                        }
                    },
                    {
                        "type": [
                            {
                                "coding": [
                                    {
                                        "system": "http://hl7.org/fhir/v3/ParticipationType",
                                        "code": "ATND",
                                        "display": "attender"
                                    }
                                ],
                                "text": "attender"
                            }
                        ],
                        "period": {
                            "start": "2009-03-29T18:52:00Z",
                            "end": "2009-03-30T12:19:11Z"
                        },
                        "individual": {
                            "reference": "Practitioner/e9s-IdXQOUVywHOVoisd6xQ3",
                            "type": "Practitioner",
                            "display": "Attending Physician Inpatient, MD"
                        }
                    },
                    {
                        "type": [
                            {
                                "coding": [
                                    {
                                        "system": "http://hl7.org/fhir/v3/ParticipationType",
                                        "code": "ATND",
                                        "display": "attender"
                                    }
                                ],
                                "text": "attender"
                            }
                        ],
                        "period": {
                            "start": "2009-03-30T12:19:11Z",
                            "end": "2011-05-23T23:49:00Z"
                        },
                        "individual": {
                            "reference": "Practitioner/e9s-IdXQOUVywHOVoisd6xQ3",
                            "type": "Practitioner",
                            "display": "Attending Physician Inpatient, MD"
                        }
                    }
                ],
                "period": {
                    "start": "2009-03-29T13:15:00Z",
                    "end": "2011-05-23T23:49:00Z"
                },
                "reasonCode": [
                    {
                        "coding": [
                            {
                                "system": "http://snomed.info/sct",
                                "code": "14336007",
                                "display": "Ruptured abdominal aortic aneurysm (disorder)"
                            }
                        ],
                        "text": "Abdominal aneurysm, ruptured (CMS/HCC)"
                    },
                    {
                        "coding": [
                            {
                                "system": "http://snomed.info/sct",
                                "code": "93143009",
                                "display": "Leukemia, disease (disorder)"
                            }
                        ],
                        "text": "Leukemia (CMS/HCC)"
                    }
                ],
                "diagnosis": [
                    {
                        "condition": {
                            "reference": "Condition/eGHfFAowEmGrcVx6qvBsA2g3",
                            "display": "Leukemia (CMS/HCC)"
                        }
                    }
                ],
                "account": [
                    {
                        "identifier": {
                            "system": "urn:oid:1.2.840.114350.1.13.0.1.7.2.726582",
                            "value": "243"
                        },
                        "display": "ZZTEST,FOUR"
                    }
                ],
                "hospitalization": {
                    "extension": [
                        {
                            "valueDateTime": "2009-03-29T18:53:00Z",
                            "url": "http://open.epic.com/FHIR/StructureDefinition/extension/ip-admit-datetime"
                        }
                    ],
                    "admitSource": {
                        "coding": [
                            {
                                "system": "urn:oid:1.2.840.114350.1.13.0.1.7.10.698084.10310",
                                "code": "7",
                                "display": "Emergency Room"
                            }
                        ],
                        "text": "Emergency Room"
                    },
                    "dischargeDisposition": {
                        "coding": [
                            {
                                "system": "urn:oid:1.2.840.114350.1.13.0.1.7.10.698084.18888",
                                "code": "1",
                                "display": "Home or Self Care"
                            }
                        ],
                        "text": "Home or Self Care"
                    }
                },
                "location": [
                    {
                        "location": {
                            "reference": "Location/eweKBcq8ruM-1MzZAX-A-0uj2rDm4SMniPONiaM5VGQk3",
                            "display": "EMH Emergency"
                        },
                        "period": {
                            "start": "2009-03-29T13:15:00Z",
                            "end": "2009-03-29T18:53:00Z"
                        }
                    },
                    {
                        "location": {
                            "reference": "Location/ew6bRiiIcKbo9d2tQ4dyffWV6gsk8iSoKgmSUmFU7tc83",
                            "display": "EMH GI Services"
                        },
                        "period": {
                            "start": "2009-03-29T18:53:00Z",
                            "end": "2011-05-23T23:49:00Z"
                        }
                    },
                    {
                        "location": {
                            "reference": "Location/ew6bRiiIcKbo9d2tQ4dyffWV6gsk8iSoKgmSUmFU7tc83",
                            "display": "EMH GI Services"
                        }
                    },
                    {
                        "location": {
                            "reference": "Location/eQSOrLdbVrMRc68KBcTBG4A3",
                            "display": "Epic Hospital System"
                        }
                    },
                    {
                        "location": {
                            "reference": "Location/ecNjRS096Bl197dPQqJ9TWw3",
                            "display": "GI POOL ROOM"
                        },
                        "physicalType": {
                            "coding": [
                                {
                                    "system": "http://terminology.hl7.org/CodeSystem/location-physical-type",
                                    "code": "ro",
                                    "display": "Room"
                                }
                            ],
                            "text": "Room"
                        }
                    },
                    {
                        "location": {
                            "identifier": {
                                "system": "urn:oid:1.2.840.114350.1.13.0.1.7.2.666968",
                                "value": "546"
                            },
                            "display": "GI BEDS"
                        },
                        "physicalType": {
                            "coding": [
                                {
                                    "system": "http://terminology.hl7.org/CodeSystem/location-physical-type",
                                    "code": "bd",
                                    "display": "Bed"
                                }
                            ],
                            "text": "Bed"
                        }
                    }
                ]
            },
            "search": {
                "mode": "include"
            }
        },
        {
            "link": [
                {
                    "relation": "self",
                    "url": "https://appmarket.epic.com/interconnect-amcurprd-oauth/api/FHIR/R4/EpisodeOfCare/edhNh8IxQ3MoRRX3k66GM4g3"
                }
            ],
            "fullUrl": "https://appmarket.epic.com/interconnect-amcurprd-oauth/api/FHIR/R4/EpisodeOfCare/edhNh8IxQ3MoRRX3k66GM4g3",
            "resource": {
                "resourceType": "EpisodeOfCare",
                "id": "edhNh8IxQ3MoRRX3k66GM4g3",
                "extension": [
                    {
                        "valueString": "ONCOLOGY TREATMENT",
                        "url": "http://open.epic.com/FHIR/StructureDefinition/extension/episode-name"
                    }
                ],
                "status": "active",
                "type": [
                    {
                        "coding": [
                            {
                                "system": "urn:oid:1.2.840.114350.1.13.0.1.7.2.726668",
                                "code": "10",
                                "display": "ONCOLOGY TREATMENT"
                            },
                            {
                                "system": "urn:oid:1.2.840.114350.1.13.0.1.7.4.726668.130",
                                "code": "18",
                                "display": "Beacon - Treatment Plan"
                            }
                        ],
                        "text": "ONCOLOGY TREATMENT"
                    }
                ],
                "diagnosis": [
                    {
                        "condition": {
                            "reference": "Condition/eGHfFAowEmGrcVx6qvBsA2g3",
                            "type": "Condition",
                            "display": "Leukemia (CMS/HCC)"
                        }
                    }
                ],
                "patient": {
                    "reference": "Patient/e3y8g4gNpUkNwCfgT5OhR9A3",
                    "type": "Patient",
                    "display": "Zztest, Four"
                },
                "period": {
                    "start": "2011-01-04"
                },
                "team": [
                    {
                        "reference": "CareTeam/eJ2EplfOrh3ZUeU5.yp5.dYFV.0QupeaPuL6jCWmI7QY3",
                        "type": "CareTeam"
                    }
                ]
            },
            "search": {
                "mode": "include"
            }
        }
    ]
}