{
    "resourceType": "Bundle",
    "type": "searchset",
    "total": 9,
    "link": [
        {
            "relation": "self",
            "url": "https://appmarket.epic.com/interconnect-amcurprd-oauth/api/FHIR/R4/Encounter?_include=Encounter:condition&_include=Encounter:episodeOfCare&_include=Encounter:partOf&_include=Encounter:subject&_format=json&patient=emUC1aQokCLcCSjmwWh.arA3"
        }
    ],
    "entry": [
        {
            "link": [
                {
                    "relation": "self",
                    "url": "https://appmarket.epic.com/interconnect-amcurprd-oauth/api/FHIR/R4/Encounter/eiGHXFSVw5jbgSooTjLc4Tg3"
                }
            ],
            "fullUrl": "https://appmarket.epic.com/interconnect-amcurprd-oauth/api/FHIR/R4/Encounter/eiGHXFSVw5jbgSooTjLc4Tg3",
            "resource": {
                "resourceType": "Encounter",
                "id": "eiGHXFSVw5jbgSooTjLc4Tg3",
                "identifier": [
                    {
                        "use": "usual",
                        "system": "urn:oid:1.2.840.114350.1.13.0.1.7.3.698084.8",
                        "value": "16006"
                    }
                ],
                "status": "in-progress",
                "class": {
                    "system": "urn:oid:1.2.840.114350.1.72.1.7.7.10.696784.13260",
                    "code": "13",
                    "display": "Support OP Encounter"
                },
                "type": [
                    {
                        "coding": [
                            {
                                "system": "urn:oid:1.2.840.114350.1.13.0.1.7.10.698084.30",
                                "code": "150",
                                "display": "Abstract"
                            }
                        ],
                        "text": "Abstract"
                    }
                ],
                "subject": {
                    "reference": "Patient/emUC1aQokCLcCSjmwWh.arA3",
                    "display": "Zztransplant, Larry O"
                },
                "episodeOfCare": [
                    {
                        "reference": "EpisodeOfCare/eW9vCaB7yd6lMAgrS6UCGvQ3",
                        "type": "EpisodeOfCare",
                        "display": "Liver Transplant Waitlist \u2013 6/30/2014"
                    }
                ],
                "period": {
                    "start": "2014-06-30",
                    "end": "2014-06-30"
                },
                "reasonCode": [
                    {
                        "coding": [
                            {
                                "system": "urn:oid:1.2.840.114350.1.13.0.1.7.2.728286",
                                "code": "2050000019",
                                "display": "Waitlist Status Update"
                            }
                        ],
                        "text": "Waitlist Status Update"
                    }
                ],
                "location": [
                    {
                        "location": {
                            "reference": "Location/e.zUbzUZH9WErlJkdM0-hMZY7Z6JkVK.ftghaWm0ZCLs3",
                            "display": "EMH Abdominal Transplant"
                        }
                    }
                ]
            },
            "search": {
                "mode": "match"
            }
        },
        {
            "link": [
                {
                    "relation": "self",
                    "url": "https://appmarket.epic.com/interconnect-amcurprd-oauth/api/FHIR/R4/Encounter/erwdT5jR8OhyLjl1cvn5HoA3"
                }
            ],
            "fullUrl": "https://appmarket.epic.com/interconnect-amcurprd-oauth/api/FHIR/R4/Encounter/erwdT5jR8OhyLjl1cvn5HoA3",
            "resource": {
                "resourceType": "Encounter",
                "id": "erwdT5jR8OhyLjl1cvn5HoA3",
                "identifier": [
                    {
                        "use": "usual",
                        "system": "urn:oid:1.2.840.114350.1.13.0.1.7.3.698084.8",
                        "value": "16005"
                    }
                ],
                "status": "finished",
                "class": {
                    "system": "urn:oid:1.2.840.114350.1.72.1.7.7.10.696784.13260",
                    "code": "13",
                    "display": "Support OP Encounter"
                },
                "type": [
                    {
                        "coding": [
                            {
                                "system": "urn:oid:1.2.840.114350.1.13.0.1.7.10.698084.30",
                                "code": "97",
                                "display": "Committee Review"
                            }
                        ],
                        "text": "Committee Review"
                    }
                ],
                "subject": {
                    "reference": "Patient/emUC1aQokCLcCSjmwWh.arA3",
                    "display": "Zztransplant, Larry O"
                },
                "episodeOfCare": [
                    {
                        "reference": "EpisodeOfCare/eW9vCaB7yd6lMAgrS6UCGvQ3",
                        "type": "EpisodeOfCare",
                        "display": "Liver Transplant Waitlist \u2013 6/30/2014"
                    }
                ],
                "participant": [
                    {
                        "extension": [
                            {
                                "valueCodeableConcept": {
                                    "coding": [
                                        {
                                            "system": "urn:oid:1.2.840.114350.1.13.0.1.7.4.698084.18832",
                                            "code": "21",
                                            "display": "Nutrition"
                                        }
                                    ],
                                    "text": "Nutrition"
                                },
                                "url": "http://open.epic.com/FHIR/StructureDefinition/extension/specialty"
                            }
                        ],
                        "period": {
                            "start": "2014-06-30T21:28:57Z",
                            "end": "2014-06-30T21:31:33Z"
                        },
                        "individual": {
                            "reference": "Practitioner/eMrXAuxP1T8WDXTauxeih8A3",
                            "type": "Practitioner",
                            "display": "Nutrition Inpatient, RD"
                        }
                    },
                    {
                        "extension": [
                            {
                                "valueCodeableConcept": {
                                    "coding": [
                                        {
                                            "system": "urn:oid:1.2.840.114350.1.13.0.1.7.4.698084.18832",
                                            "code": "37",
                                            "display": "Psychiatry"
                                        }
                                    ],
                                    "text": "Psychiatry"
                                },
                                "url": "http://open.epic.com/FHIR/StructureDefinition/extension/specialty"
                            }
                        ],
                        "period": {
                            "start": "2014-06-30T21:28:57Z",
                            "end": "2014-06-30T21:31:33Z"
                        },
                        "individual": {
                            "reference": "Practitioner/erVI51faK4HiMDOnwELLxcA3",
                            "type": "Practitioner",
                            "display": "Physician Psychiatry, MD"
                        }
                    },
                    {
                        "extension": [
                            {
                                "valueCodeableConcept": {
                                    "coding": [
                                        {
                                            "system": "urn:oid:1.2.840.114350.1.13.0.1.7.4.698084.18832",
                                            "code": "38",
                                            "display": "Psychology"
                                        }
                                    ],
                                    "text": "Psychology"
                                },
                                "url": "http://open.epic.com/FHIR/StructureDefinition/extension/specialty"
                            }
                        ],
                        "period": {
                            "start": "2014-06-30T21:28:57Z",
                            "end": "2014-06-30T21:31:33Z"
                        },
                        "individual": {
                            "reference": "Practitioner/e6S0THxOPrGAM15rH9NZQjg3",
                            "type": "Practitioner",
                            "display": "Social Worker, LCSW"
                        }
                    },
                    {
                        "extension": [
                            {
                                "valueCodeableConcept": {
                                    "coding": [
                                        {
                                            "system": "urn:oid:1.2.840.114350.1.13.0.1.7.4.698084.18832",
                                            "code": "124",
                                            "display": "Pharmacy"
                                        }
                                    ],
                                    "text": "Pharmacy"
                                },
                                "url": "http://open.epic.com/FHIR/StructureDefinition/extension/specialty"
                            }
                        ],
                        "period": {
                            "start": "2014-06-30T21:28:57Z",
                            "end": "2014-06-30T21:31:33Z"
                        },
                        "individual": {
                            "reference": "Practitioner/eTqJMfUFpdZx2nCjgBuc5HA3",
                            "type": "Practitioner",
                            "display": "Pharmacist Willow Ambulatory, RPh"
                        }
                    },
                    {
                        "extension": [
                            {
                                "valueCodeableConcept": {
                                    "coding": [
                                        {
                                            "system": "urn:oid:1.2.840.114350.1.13.0.1.7.4.698084.18832",
                                            "code": "136",
                                            "display": "Transplant"
                                        }
                                    ],
                                    "text": "Transplant"
                                },
                                "url": "http://open.epic.com/FHIR/StructureDefinition/extension/specialty"
                            }
                        ],
                        "type": [
                            {
                                "text": "Chair"
                            }
                        ],
                        "period": {
                            "start": "2014-06-30T21:28:57Z",
                            "end": "2014-06-30T21:31:33Z"
                        },
                        "individual": {
                            "reference": "Practitioner/e4fBRdwCD6bWDI76z9Bn9WA3",
                            "type": "Practitioner",
                            "display": "Coordinator Phoenix, RN"
                        }
                    },
                    {
                        "extension": [
                            {
                                "valueCodeableConcept": {
                                    "coding": [
                                        {
                                            "system": "urn:oid:1.2.840.114350.1.13.0.1.7.4.698084.18832",
                                            "code": "136",
                                            "display": "Transplant"
                                        }
                                    ],
                                    "text": "Transplant"
                                },
                                "url": "http://open.epic.com/FHIR/StructureDefinition/extension/specialty"
                            }
                        ],
                        "period": {
                            "start": "2014-06-30T21:28:57Z",
                            "end": "2014-06-30T21:31:33Z"
                        },
                        "individual": {
                            "reference": "Practitioner/emhilH6WzKBpangkpuWtgdQ3",
                            "type": "Practitioner",
                            "display": "Physician Phoenix, MD"
                        }
                    },
                    {
                        "extension": [
                            {
                                "valueCodeableConcept": {
                                    "coding": [
                                        {
                                            "system": "urn:oid:1.2.840.114350.1.13.0.1.7.4.698084.18832",
                                            "code": "173",
                                            "display": "Transplant Surgery"
                                        }
                                    ],
                                    "text": "Transplant Surgery"
                                },
                                "url": "http://open.epic.com/FHIR/StructureDefinition/extension/specialty"
                            }
                        ],
                        "period": {
                            "start": "2014-06-30T21:28:57Z",
                            "end": "2014-06-30T21:31:33Z"
                        },
                        "individual": {
                            "reference": "Practitioner/elTUTFIGq8lDte.a-vdxy6g3",
                            "type": "Practitioner",
                            "display": "Surgeon Phoenix, MD"
                        }
                    },
                    {
                        "extension": [
                            {
                                "valueCodeableConcept": {
                                    "coding": [
                                        {
                                            "system": "urn:oid:1.2.840.114350.1.13.0.1.7.4.698084.18832",
                                            "code": "174",
                                            "display": "Finance"
                                        }
                                    ],
                                    "text": "Finance"
                                },
                                "url": "http://open.epic.com/FHIR/StructureDefinition/extension/specialty"
                            }
                        ],
                        "period": {
                            "start": "2014-06-30T21:28:57Z",
                            "end": "2014-06-30T21:31:33Z"
                        },
                        "individual": {
                            "reference": "Practitioner/eyV8vOOChpSZIOEXnM8hF3g3",
                            "type": "Practitioner",
                            "display": "Financial Coordinator Phoenix"
                        }
                    }
                ],
                "period": {
                    "start": "2014-06-30",
                    "end": "2014-06-30"
                },
                "location": [
                    {
                        "location": {
                            "reference": "Location/e.zUbzUZH9WErlJkdM0-hMZY7Z6JkVK.ftghaWm0ZCLs3",
                            "display": "EMH Abdominal Transplant"
                        }
                    }
                ]
            },
            "search": {
                "mode": "match"
            }
        },
        {
            "link": [
                {
                    "relation": "self",
                    "url": "https://appmarket.epic.com/interconnect-amcurprd-oauth/api/FHIR/R4/Encounter/eu9UtQf7a.zfmIcqdivT4Hg3"
                }
            ],
            "fullUrl": "https://appmarket.epic.com/interconnect-amcurprd-oauth/api/FHIR/R4/Encounter/eu9UtQf7a.zfmIcqdivT4Hg3",
            "resource": {
                "resourceType": "Encounter",
                "id": "eu9UtQf7a.zfmIcqdivT4Hg3",
                "identifier": [
                    {
                        "use": "usual",
                        "system": "urn:oid:1.2.840.114350.1.13.0.1.7.3.698084.8",
                        "value": "16004"
                    }
                ],
                "status": "finished",
                "class": {
                    "system": "urn:oid:1.2.840.114350.1.72.1.7.7.10.696784.13260",
                    "code": "13",
                    "display": "Support OP Encounter"
                },
                "type": [
                    {
                        "coding": [
                            {
                                "system": "urn:oid:1.2.840.114350.1.13.0.1.7.10.698084.30",
                                "code": "150",
                                "display": "Abstract"
                            }
                        ],
                        "text": "Abstract"
                    }
                ],
                "subject": {
                    "reference": "Patient/emUC1aQokCLcCSjmwWh.arA3",
                    "display": "Zztransplant, Larry O"
                },
                "episodeOfCare": [
                    {
                        "reference": "EpisodeOfCare/eW9vCaB7yd6lMAgrS6UCGvQ3",
                        "type": "EpisodeOfCare",
                        "display": "Liver Transplant Waitlist \u2013 6/30/2014"
                    }
                ],
                "period": {
                    "start": "2014-06-30",
                    "end": "2014-06-30"
                },
                "location": [
                    {
                        "location": {
                            "reference": "Location/e.zUbzUZH9WErlJkdM0-hMZY7Z6JkVK.ftghaWm0ZCLs3",
                            "display": "EMH Abdominal Transplant"
                        }
                    }
                ]
            },
            "search": {
                "mode": "match"
            }
        },
        {
            "link": [
                {
                    "relation": "self",
                    "url": "https://appmarket.epic.com/interconnect-amcurprd-oauth/api/FHIR/R4/Encounter/eDVLXUkB2b9mPbDmZbfk6-g3"
                }
            ],
            "fullUrl": "https://appmarket.epic.com/interconnect-amcurprd-oauth/api/FHIR/R4/Encounter/eDVLXUkB2b9mPbDmZbfk6-g3",
            "resource": {
                "resourceType": "Encounter",
                "id": "eDVLXUkB2b9mPbDmZbfk6-g3",
                "identifier": [
                    {
                        "use": "usual",
                        "system": "urn:oid:1.2.840.114350.1.13.0.1.7.3.698084.8",
                        "value": "16000"
                    }
                ],
                "status": "in-progress",
                "class": {
                    "system": "urn:oid:1.2.840.114350.1.72.1.7.7.10.696784.13260",
                    "code": "13",
                    "display": "Support OP Encounter"
                },
                "type": [
                    {
                        "coding": [
                            {
                                "system": "urn:oid:1.2.840.114350.1.13.0.1.7.10.698084.30",
                                "code": "150",
                                "display": "Abstract"
                            }
                        ],
                        "text": "Abstract"
                    }
                ],
                "subject": {
                    "reference": "Patient/emUC1aQokCLcCSjmwWh.arA3",
                    "display": "Zztransplant, Larry O"
                },
                "episodeOfCare": [
                    {
                        "reference": "EpisodeOfCare/eW9vCaB7yd6lMAgrS6UCGvQ3",
                        "type": "EpisodeOfCare",
                        "display": "Liver Transplant Waitlist \u2013 6/30/2014"
                    }
                ],
                "period": {
                    "start": "2014-04-18",
                    "end": "2014-04-18"
                },
                "location": [
                    {
                        "location": {
                            "reference": "Location/e.zUbzUZH9WErlJkdM0-hMZY7Z6JkVK.ftghaWm0ZCLs3",
                            "display": "EMH Abdominal Transplant"
                        }
                    }
                ]
            },
            "search": {
                "mode": "match"
            }
        },
        {
            "link": [
                {
                    "relation": "self",
                    "url": "https://appmarket.epic.com/interconnect-amcurprd-oauth/api/FHIR/R4/Encounter/e401PYJNf0co3vFRETvUyvQ3"
                }
            ],
            "fullUrl": "https://appmarket.epic.com/interconnect-amcurprd-oauth/api/FHIR/R4/Encounter/e401PYJNf0co3vFRETvUyvQ3",
            "resource": {
                "resourceType": "Encounter",
                "id": "e401PYJNf0co3vFRETvUyvQ3",
                "identifier": [
                    {
                        "use": "usual",
                        "system": "urn:oid:1.2.840.114350.1.13.0.1.7.3.698084.8",
                        "value": "15999"
                    }
                ],
                "status": "finished",
                "class": {
                    "system": "urn:oid:1.2.840.114350.1.72.1.7.7.10.696784.13260",
                    "code": "13",
                    "display": "Support OP Encounter"
                },
                "type": [
                    {
                        "coding": [
                            {
                                "system": "urn:oid:1.2.840.114350.1.13.0.1.7.10.698084.30",
                                "code": "70",
                                "display": "Telephone"
                            }
                        ],
                        "text": "Telephone"
                    }
                ],
                "subject": {
                    "reference": "Patient/emUC1aQokCLcCSjmwWh.arA3",
                    "display": "Zztransplant, Larry O"
                },
                "episodeOfCare": [
                    {
                        "reference": "EpisodeOfCare/eW9vCaB7yd6lMAgrS6UCGvQ3",
                        "type": "EpisodeOfCare",
                        "display": "Liver Transplant Waitlist \u2013 6/30/2014"
                    }
                ],
                "period": {
                    "start": "2014-04-18",
                    "end": "2014-04-18"
                },
                "reasonCode": [
                    {
                        "coding": [
                            {
                                "system": "urn:oid:1.2.840.114350.1.13.0.1.7.2.728286",
                                "code": "2050000007",
                                "display": "Referral - Liver Txp"
                            }
                        ],
                        "text": "Referral - Liver Txp"
                    }
                ],
                "location": [
                    {
                        "location": {
                            "reference": "Location/e.zUbzUZH9WErlJkdM0-hMZY7Z6JkVK.ftghaWm0ZCLs3",
                            "display": "EMH Abdominal Transplant"
                        }
                    }
                ]
            },
            "search": {
                "mode": "match"
            }
        },
        {
            "link": [
                {
                    "relation": "self",
                    "url": "https://appmarket.epic.com/interconnect-amcurprd-oauth/api/FHIR/R4/Encounter/ei8UndBEkFMMnbASeoWpCWg3"
                }
            ],
            "fullUrl": "https://appmarket.epic.com/interconnect-amcurprd-oauth/api/FHIR/R4/Encounter/ei8UndBEkFMMnbASeoWpCWg3",
            "resource": {
                "resourceType": "Encounter",
                "id": "ei8UndBEkFMMnbASeoWpCWg3",
                "identifier": [
                    {
                        "use": "usual",
                        "system": "urn:oid:1.2.840.114350.1.13.0.1.7.3.698084.8",
                        "value": "15997"
                    }
                ],
                "status": "finished",
                "class": {
                    "system": "urn:oid:1.2.840.114350.1.72.1.7.7.10.696784.13260",
                    "code": "13",
                    "display": "Support OP Encounter"
                },
                "type": [
                    {
                        "coding": [
                            {
                                "system": "urn:oid:1.2.840.114350.1.13.0.1.7.10.698084.30",
                                "code": "101",
                                "display": "Office Visit"
                            }
                        ],
                        "text": "Office Visit"
                    }
                ],
                "subject": {
                    "reference": "Patient/emUC1aQokCLcCSjmwWh.arA3",
                    "display": "Zztransplant, Larry O"
                },
                "participant": [
                    {
                        "type": [
                            {
                                "text": "losAuthorizingPhysician"
                            }
                        ],
                        "individual": {
                            "reference": "Practitioner/eM5CWtq15N0WJeuCet5bJlQ3",
                            "type": "Practitioner",
                            "display": "Physician Family Medicine, MD"
                        }
                    }
                ],
                "period": {
                    "start": "2014-04-18",
                    "end": "2014-04-18"
                },
                "reasonCode": [
                    {
                        "coding": [
                            {
                                "system": "urn:oid:1.2.840.114350.1.13.0.1.7.2.728286",
                                "code": "239",
                                "display": "Cirrhosis"
                            }
                        ],
                        "text": "Cirrhosis"
                    },
                    {
                        "coding": [
                            {
                                "system": "urn:oid:1.2.840.114350.1.13.0.1.7.2.728286",
                                "code": "110036",
                                "display": "Hepatitis"
                            }
                        ],
                        "text": "Hepatitis"
                    }
                ],
                "location": [
                    {
                        "location": {
                            "reference": "Location/e4W4rmGe9QzuGm2Dy4NBqVc0KDe6yGld6HW95UuN-Qd03",
                            "display": "EMC Family Medicine"
                        }
                    }
                ]
            },
            "search": {
                "mode": "match"
            }
        },
        {
            "link": [
                {
                    "relation": "self",
                    "url": "https://appmarket.epic.com/interconnect-amcurprd-oauth/api/FHIR/R4/Encounter/eV91f3GFfGpArsF3JWIkDgg3"
                }
            ],
            "fullUrl": "https://appmarket.epic.com/interconnect-amcurprd-oauth/api/FHIR/R4/Encounter/eV91f3GFfGpArsF3JWIkDgg3",
            "resource": {
                "resourceType": "Encounter",
                "id": "eV91f3GFfGpArsF3JWIkDgg3",
                "identifier": [
                    {
                        "use": "usual",
                        "system": "urn:oid:1.2.840.114350.1.13.0.1.7.3.698084.8",
                        "value": "15995"
                    }
                ],
                "status": "finished",
                "class": {
                    "system": "urn:oid:1.2.840.114350.1.72.1.7.7.10.696784.13260",
                    "code": "13",
                    "display": "Support OP Encounter"
                },
                "type": [
                    {
                        "coding": [
                            {
                                "system": "urn:oid:1.2.840.114350.1.13.0.1.7.10.698084.30",
                                "code": "101",
                                "display": "Office Visit"
                            }
                        ],
                        "text": "Office Visit"
                    }
                ],
                "subject": {
                    "reference": "Patient/emUC1aQokCLcCSjmwWh.arA3",
                    "display": "Zztransplant, Larry O"
                },
                "participant": [
                    {
                        "type": [
                            {
                                "text": "losAuthorizingPhysician"
                            }
                        ],
                        "individual": {
                            "reference": "Practitioner/eM5CWtq15N0WJeuCet5bJlQ3",
                            "type": "Practitioner",
                            "display": "Physician Family Medicine, MD"
                        }
                    }
                ],
                "period": {
                    "start": "2014-02-14",
                    "end": "2014-02-14"
                },
                "reasonCode": [
                    {
                        "coding": [
                            {
                                "system": "urn:oid:1.2.840.114350.1.13.0.1.7.2.728286",
                                "code": "239",
                                "display": "Cirrhosis"
                            }
                        ],
                        "text": "Cirrhosis"
                    },
                    {
                        "coding": [
                            {
                                "system": "urn:oid:1.2.840.114350.1.13.0.1.7.2.728286",
                                "code": "110036",
                                "display": "Hepatitis"
                            }
                        ],
                        "text": "Hepatitis"
                    }
                ],
                "location": [
                    {
                        "location": {
                            "reference": "Location/e4W4rmGe9QzuGm2Dy4NBqVc0KDe6yGld6HW95UuN-Qd03",
                            "display": "EMC Family Medicine"
                        }
                    }
                ]
            },
            "search": {
                "mode": "match"
            }
        },
        {
            "link": [
                {
                    "relation": "self",
                    "url": "https://appmarket.epic.com/interconnect-amcurprd-oauth/api/FHIR/R4/Encounter/ednmrPJFHq7aVFqvwYMpIew3"
                }
            ],
            "fullUrl": "https://appmarket.epic.com/interconnect-amcurprd-oauth/api/FHIR/R4/Encounter/ednmrPJFHq7aVFqvwYMpIew3",
            "resource": {
                "resourceType": "Encounter",
                "id": "ednmrPJFHq7aVFqvwYMpIew3",
                "identifier": [
                    {
                        "use": "usual",
                        "system": "urn:oid:1.2.840.114350.1.13.0.1.7.3.698084.8",
                        "value": "15994"
                    }
                ],
                "status": "finished",
                "class": {
                    "system": "urn:oid:1.2.840.114350.1.72.1.7.7.10.696784.13260",
                    "code": "13",
                    "display": "Support OP Encounter"
                },
                "type": [
                    {
                        "coding": [
                            {
                                "system": "urn:oid:1.2.840.114350.1.13.0.1.7.10.698084.30",
                                "code": "111",
                                "display": "Orders Only"
                            }
                        ],
                        "text": "Orders Only"
                    }
                ],
                "subject": {
                    "reference": "Patient/emUC1aQokCLcCSjmwWh.arA3",
                    "display": "Zztransplant, Larry O"
                },
                "period": {
                    "start": "2013-08-15",
                    "end": "2013-08-15"
                },
                "location": [
                    {
                        "location": {
                            "reference": "Location/e4W4rmGe9QzuGm2Dy4NBqVc0KDe6yGld6HW95UuN-Qd03",
                            "display": "EMC Family Medicine"
                        }
                    }
                ]
            },
            "search": {
                "mode": "match"
            }
        },
        {
            "link": [
                {
                    "relation": "self",
                    "url": "https://appmarket.epic.com/interconnect-amcurprd-oauth/api/FHIR/R4/Encounter/e9XY9F8IlOrSZJ6ZL8dsfsw3"
                }
            ],
            "fullUrl": "https://appmarket.epic.com/interconnect-amcurprd-oauth/api/FHIR/R4/Encounter/e9XY9F8IlOrSZJ6ZL8dsfsw3",
            "resource": {
                "resourceType": "Encounter",
                "id": "e9XY9F8IlOrSZJ6ZL8dsfsw3",
                "identifier": [
                    {
                        "use": "usual",
                        "system": "urn:oid:1.2.840.114350.1.13.0.1.7.3.698084.8",
                        "value": "15991"
                    }
                ],
                "status": "finished",
                "class": {
                    "system": "urn:oid:1.2.840.114350.1.72.1.7.7.10.696784.13260",
                    "code": "13",
                    "display": "Support OP Encounter"
                },
                "type": [
                    {
                        "coding": [
                            {
                                "system": "urn:oid:1.2.840.114350.1.13.0.1.7.10.698084.30",
                                "code": "101",
                                "display": "Office Visit"
                            }
                        ],
                        "text": "Office Visit"
                    }
                ],
                "subject": {
                    "reference": "Patient/emUC1aQokCLcCSjmwWh.arA3",
                    "display": "Zztransplant, Larry O"
                },
                "participant": [
                    {
                        "type": [
                            {
                                "text": "losAuthorizingPhysician"
                            }
                        ],
                        "individual": {
                            "reference": "Practitioner/eM5CWtq15N0WJeuCet5bJlQ3",
                            "type": "Practitioner",
                            "display": "Physician Family Medicine, MD"
                        }
                    }
                ],
                "period": {
                    "start": "2013-08-15",
                    "end": "2013-08-15"
                },
                "reasonCode": [
                    {
                        "coding": [
                            {
                                "system": "urn:oid:1.2.840.114350.1.13.0.1.7.2.728286",
                                "code": "239",
                                "display": "Cirrhosis"
                            }
                        ],
                        "text": "Cirrhosis"
                    },
                    {
                        "coding": [
                            {
                                "system": "urn:oid:1.2.840.114350.1.13.0.1.7.2.728286",
                                "code": "110036",
                                "display": "Hepatitis"
                            }
                        ],
                        "text": "Hepatitis"
                    }
                ],
                "location": [
                    {
                        "location": {
                            "reference": "Location/e4W4rmGe9QzuGm2Dy4NBqVc0KDe6yGld6HW95UuN-Qd03",
                            "display": "EMC Family Medicine"
                        }
                    }
                ]
            },
            "search": {
                "mode": "match"
            }
        },
        {
            "link": [
                {
                    "relation": "self",
                    "url": "https://appmarket.epic.com/interconnect-amcurprd-oauth/api/FHIR/R4/EpisodeOfCare/eW9vCaB7yd6lMAgrS6UCGvQ3"
                }
            ],
            "fullUrl": "https://appmarket.epic.com/interconnect-amcurprd-oauth/api/FHIR/R4/EpisodeOfCare/eW9vCaB7yd6lMAgrS6UCGvQ3",
            "resource": {
                "resourceType": "EpisodeOfCare",
                "id": "eW9vCaB7yd6lMAgrS6UCGvQ3",
                "extension": [
                    {
                        "valueString": "Liver Transplant Waitlist \u2013 6/30/2014",
                        "url": "http://open.epic.com/FHIR/StructureDefinition/extension/episode-name"
                    },
                    {
                        "valueCodeableConcept": {
                            "coding": [
                                {
                                    "system": "urn:oid:1.2.840.114350.1.72.1.7.7.10.728366.30035",
                                    "code": "2",
                                    "display": "Recipient"
                                }
                            ],
                            "text": "Recipient"
                        },
                        "url": "http://open.epic.com/FHIR/StructureDefinition/extension/transplant-donor-or-recipient"
                    },
                    {
                        "extension": [
                            {
                                "valueCodeableConcept": {
                                    "coding": [
                                        {
                                            "system": "urn:oid:1.2.840.114350.1.72.1.7.7.10.728366.30030",
                                            "code": "8",
                                            "display": "Liver"
                                        }
                                    ],
                                    "text": "Liver"
                                },
                                "url": "organ-class"
                            },
                            {
                                "valueReference": {
                                    "reference": "Practitioner/e4fBRdwCD6bWDI76z9Bn9WA3",
                                    "type": "Practitioner",
                                    "display": "Coordinator Phoenix, RN"
                                },
                                "url": "coordinator"
                            }
                        ],
                        "url": "http://open.epic.com/FHIR/StructureDefinition/extension/transplant-organ-coordinator"
                    },
                    {
                        "extension": [
                            {
                                "valueCodeableConcept": {
                                    "coding": [
                                        {
                                            "system": "urn:oid:1.2.840.114350.1.72.1.7.7.10.728366.30105",
                                            "code": "30",
                                            "display": "Waitlist"
                                        }
                                    ],
                                    "text": "Waitlist"
                                },
                                "url": "phase"
                            },
                            {
                                "valueString": "Active",
                                "url": "status"
                            },
                            {
                                "valueDate": "2014-06-30",
                                "url": "effective"
                            }
                        ],
                        "url": "http://open.epic.com/FHIR/StructureDefinition/extension/transplant-phase-status"
                    },
                    {
                        "valueDate": "2014-04-18",
                        "url": "http://open.epic.com/FHIR/StructureDefinition/extension/transplant-event-referral-date"
                    },
                    {
                        "valuePeriod": {
                            "start": "2014-06-25",
                            "end": "2014-06-30"
                        },
                        "url": "http://open.epic.com/FHIR/StructureDefinition/extension/transplant-event-evaluation"
                    },
                    {
                        "valueDate": "2014-07-01",
                        "url": "http://open.epic.com/FHIR/StructureDefinition/extension/transplant-event-committee-review-date"
                    },
                    {
                        "valueDate": "2014-06-30",
                        "url": "http://open.epic.com/FHIR/StructureDefinition/extension/transplant-event-center-waitlist-date"
                    },
                    {
                        "valueDate": "2014-06-30",
                        "url": "http://open.epic.com/FHIR/StructureDefinition/extension/transplant-event-waitlist-date"
                    },
                    {
                        "valueString": "University of Wisconsin Hospital and Clinics (Madison, WI)",
                        "url": "http://open.epic.com/FHIR/StructureDefinition/extension/transplant-center"
                    }
                ],
                "status": "active",
                "type": [
                    {
                        "coding": [
                            {
                                "system": "urn:oid:1.2.840.114350.1.13.0.1.7.2.726668",
                                "code": "49",
                                "display": "Transplant"
                            },
                            {
                                "system": "urn:oid:1.2.840.114350.1.13.0.1.7.4.726668.130",
                                "code": "4",
                                "display": "Transplant"
                            }
                        ],
                        "text": "Transplant"
                    }
                ],
                "patient": {
                    "reference": "Patient/emUC1aQokCLcCSjmwWh.arA3",
                    "type": "Patient",
                    "display": "Zztransplant, Larry O"
                },
                "period": {
                    "start": "2014-04-18"
                },
                "team": [
                    {
                        "reference": "CareTeam/efCuKtoAgJe1TO2kQVwCZtlRsUH65pZrhYCRaTF00l-E3",
                        "type": "CareTeam"
                    }
                ]
            },
            "search": {
                "mode": "include"
            }
        },
        {
            "link": [
                {
                    "relation": "self",
                    "url": "https://appmarket.epic.com/interconnect-amcurprd-oauth/api/FHIR/R4/Patient/emUC1aQokCLcCSjmwWh.arA3"
                }
            ],
            "fullUrl": "https://appmarket.epic.com/interconnect-amcurprd-oauth/api/FHIR/R4/Patient/emUC1aQokCLcCSjmwWh.arA3",
            "resource": {
                "resourceType": "Patient",
                "id": "emUC1aQokCLcCSjmwWh.arA3",
                "extension": [
                    {
                        "extension": [
                            {
                                "valueCoding": {
                                    "system": "http://terminology.hl7.org/CodeSystem/v3-NullFlavor",
                                    "code": "UNK",
                                    "display": "Unknown"
                                },
                                "url": "ombCategory"
                            },
                            {
                                "valueString": "Unknown",
                                "url": "text"
                            }
                        ],
                        "url": "http://hl7.org/fhir/us/core/StructureDefinition/us-core-race"
                    },
                    {
                        "extension": [
                            {
                                "valueString": "Unknown",
                                "url": "text"
                            }
                        ],
                        "url": "http://hl7.org/fhir/us/core/StructureDefinition/us-core-ethnicity"
                    },
                    {
                        "valueCodeableConcept": {
                            "coding": [
                                {
                                    "system": "urn:oid:1.2.840.114350.1.13.0.1.7.10.698084.130.657370.19999000",
                                    "code": "male",
                                    "display": "male"
                                }
                            ]
                        },
                        "url": "http://open.epic.com/FHIR/StructureDefinition/extension/legal-sex"
                    },
                    {
                        "valueCodeableConcept": {
                            "coding": [
                                {
                                    "system": "urn:oid:1.2.840.114350.1.13.0.1.7.10.698084.130.657370.19999000",
                                    "code": "male",
                                    "display": "male"
                                }
                            ]
                        },
                        "url": "http://open.epic.com/FHIR/StructureDefinition/extension/sex-for-clinical-use"
                    },
                    {
                        "valueCode": "M",
                        "url": "http://hl7.org/fhir/us/core/StructureDefinition/us-core-birthsex"
                    }
                ],
                "identifier": [
                    {
                        "use": "usual",
                        "system": "urn:oid:2.16.840.1.113883.4.1",
                        "value": "607-17-5942"
                    },
                    {
                        "use": "usual",
                        "type": {
                            "text": "CEID"
                        },
                        "system": "urn:epic:apporchard.curprod",
                        "value": "AO1XK737ZBGR62W"
                    },
                    {
                        "use": "usual",
                        "type": {
                            "text": "EPIC"
                        },
                        "system": "urn:oid:1.2.840.114350.1.1",
                        "value": "E3505"
                    },
                    {
                        "use": "usual",
                        "type": {
                            "text": "EXTERNAL"
                        },
                        "system": "urn:oid:1.2.840.114350.1.13.0.1.7.2.698084",
                        "value": "Z5362"
                    },
                    {
                        "use": "usual",
                        "type": {
                            "text": "FHIR"
                        },
                        "system": "http://open.epic.com/FHIR/StructureDefinition/patient-dstu2-fhir-id",
                        "value": "TdqftobrmPXrocmNPSrALc8yVxMUL3ervYaOXUDj49cUB"
                    },
                    {
                        "use": "usual",
                        "type": {
                            "text": "FHIR STU3"
                        },
                        "system": "http://open.epic.com/FHIR/StructureDefinition/patient-fhir-id",
                        "value": "emUC1aQokCLcCSjmwWh.arA3"
                    },
                    {
                        "use": "usual",
                        "type": {
                            "text": "INTERNAL"
                        },
                        "system": "urn:oid:1.2.840.114350.1.13.0.1.7.2.698084",
                        "value": "     Z5362"
                    },
                    {
                        "use": "usual",
                        "type": {
                            "text": "MRN"
                        },
                        "system": "urn:oid:1.2.840.114350.1.13.0.1.7.5.737384.14",
                        "value": "203260"
                    },
                    {
                        "use": "usual",
                        "system": "https://open.epic.com/FHIR/StructureDefinition/PayerMemberId",
                        "value": "234234"
                    }
                ],
                "active": true,
                "name": [
                    {
                        "use": "old",
                        "text": "ZZTRANSPLANT,LARRY",
                        "family": "Zztransplant",
                        "given": [
                            "Larry"
                        ]
                    },
                    {
                        "use": "official",
                        "text": "Patient O Zztransplant",
                        "family": "Zztransplant",
                        "given": [
                            "Patient",
                            "O"
                        ]
                    },
                    {
                        "use": "usual",
                        "text": "Larry O Zztransplant",
                        "family": "Zztransplant",
                        "given": [
                            "Larry",
                            "O"
                        ]
                    }
                ],
                "telecom": [
                    {
                        "system": "phone",
                        "value": "555-555-5555",
                        "use": "home"
                    },
                    {
                        "system": "phone",
                        "value": "555-555-5555",
                        "use": "work"
                    },
                    {
                        "system": "phone",
                        "value": "555-555-5555",
                        "use": "mobile"
                    },
                    {
                        "system": "email",
                        "value": "devnull@epic.com"
                    }
                ],
                "gender": "male",
                "birthDate": "1976-07-15",
                "deceasedBoolean": false,
                "address": [
                    {
                        "use": "home",
                        "line": [
                            "1060 West Addison"
                        ],
                        "city": "CHICAGO",
                        "district": "COOK",
                        "state": "IL",
                        "postalCode": "60613",
                        "country": "US"
                    }
                ],
                "contact": [
                    {
                        "relationship": [
                            {
                                "coding": [
                                    {
                                        "system": "http://terminology.hl7.org/CodeSystem/v2-0131",
                                        "code": "C",
                                        "display": "Emergency Contact"
                                    },
                                    {
                                        "system": "http://terminology.hl7.org/CodeSystem/v2-0131",
                                        "code": "N",
                                        "display": "Next-of-Kin"
                                    },
                                    {
                                        "system": "urn:oid:1.2.840.114350.1.13.0.1.7.4.827665.1000",
                                        "code": "3",
                                        "display": "Father"
                                    }
                                ],
                                "text": "Father"
                            }
                        ],
                        "name": {
                            "use": "usual",
                            "text": "Evore,Herb"
                        },
                        "telecom": [
                            {
                                "system": "phone",
                                "value": "555-555-5555",
                                "use": "home"
                            },
                            {
                                "system": "phone",
                                "value": "555-555-5555",
                                "use": "work"
                            },
                            {
                                "system": "phone",
                                "value": "555-555-5555",
                                "use": "mobile"
                            }
                        ],
                        "address": {
                            "use": "home",
                            "line": [
                                "555 W. Main St."
                            ],
                            "city": "MADISON",
                            "district": "DANE",
                            "state": "WI",
                            "postalCode": "53703",
                            "country": "US"
                        }
                    },
                    {
                        "relationship": [
                            {
                                "coding": [
                                    {
                                        "system": "http://terminology.hl7.org/CodeSystem/v2-0131",
                                        "code": "E",
                                        "display": "Employer"
                                    }
                                ]
                            }
                        ],
                        "telecom": [
                            {
                                "system": "phone",
                                "value": "555-555-5555",
                                "use": "work"
                            }
                        ],
                        "organization": {
                            "display": "Home Improvements"
                        }
                    }
                ],
                "managingOrganization": {
                    "reference": "Organization/enRyWnSP963FYDpoks4NHOA3",
                    "display": "Epic Hospital System"
                }
            },
            "search": {
                "mode": "include"
            }
        }
    ]
}