{
    "resourceType": "Bundle",
    "type": "searchset",
    "total": 4,
    "link": [
        {
            "relation": "self",
            "url": "https://appmarket.epic.com/interconnect-amcurprd-oauth/api/FHIR/R4/Encounter?_include=Encounter:condition&_include=Encounter:episodeOfCare&_include=Encounter:partOf&_include=Encounter:subject&_format=json&patient=eprNPy2FVITyhBBiWCWZKCA3"
        }
    ],
    "entry": [
        {
            "link": [
                {
                    "relation": "self",
                    "url": "https://appmarket.epic.com/interconnect-amcurprd-oauth/api/FHIR/R4/Encounter/e1akXOF54LRGtevchM2kZlg3"
                }
            ],
            "fullUrl": "https://appmarket.epic.com/interconnect-amcurprd-oauth/api/FHIR/R4/Encounter/e1akXOF54LRGtevchM2kZlg3",
            "resource": {
                "resourceType": "Encounter",
                "id": "e1akXOF54LRGtevchM2kZlg3",
                "extension": [
                    {
                        "valueBoolean": false,
                        "url": "http://open.epic.com/FHIR/StructureDefinition/extension/accidentrelated"
                    }
                ],
                "identifier": [
                    {
                        "use": "usual",
                        "system": "urn:oid:1.2.840.114350.1.13.0.1.7.3.698084.8",
                        "value": "26452"
                    }
                ],
                "status": "in-progress",
                "class": {
                    "system": "urn:oid:1.2.840.114350.1.72.1.7.7.10.696784.13260",
                    "code": "3",
                    "display": "Admission"
                },
                "type": [
                    {
                        "coding": [
                            {
                                "system": "urn:oid:1.2.840.114350.1.13.0.1.7.10.698084.10110",
                                "code": "101",
                                "display": "Inpatient"
                            }
                        ],
                        "text": "Inpatient"
                    },
                    {
                        "coding": [
                            {
                                "system": "urn:oid:1.2.840.114350.1.13.0.1.7.10.698084.30",
                                "code": "3",
                                "display": "Hospital Encounter"
                            }
                        ],
                        "text": "Hospital Encounter"
                    },
                    {
                        "coding": [
                            {
                                "system": "urn:oid:1.2.840.114350.1.13.0.1.7.10.698084.18875",
                                "code": "3",
                                "display": "Elective"
                            }
                        ],
                        "text": "Elective"
                    }
                ],
                "serviceType": {
                    "coding": [
                        {
                            "system": "urn:oid:1.2.840.114350.1.13.0.1.7.10.698084.18886",
                            "code": "120",
                            "display": "Pediatric ICU"
                        }
                    ],
                    "text": "Pediatric ICU"
                },
                "subject": {
                    "reference": "Patient/eprNPy2FVITyhBBiWCWZKCA3",
                    "display": "Hare, Heidi OpTime"
                },
                "participant": [
                    {
                        "type": [
                            {
                                "coding": [
                                    {
                                        "system": "http://hl7.org/fhir/v3/ParticipationType",
                                        "code": "ADM",
                                        "display": "admitter"
                                    }
                                ],
                                "text": "admitter"
                            }
                        ],
                        "individual": {
                            "reference": "Practitioner/e4mnGt8AoLN8TrqZFnsrvmg3",
                            "type": "Practitioner",
                            "display": "Physician Two Pediatrics, MD"
                        }
                    },
                    {
                        "type": [
                            {
                                "coding": [
                                    {
                                        "system": "http://hl7.org/fhir/v3/ParticipationType",
                                        "code": "ATND",
                                        "display": "attender"
                                    }
                                ],
                                "text": "attender"
                            }
                        ],
                        "period": {
                            "start": "2024-07-19T16:47:38Z"
                        },
                        "individual": {
                            "reference": "Practitioner/e4mnGt8AoLN8TrqZFnsrvmg3",
                            "type": "Practitioner",
                            "display": "Physician Two Pediatrics, MD"
                        }
                    },
                    {
                        "extension": [
                            {
                                "valueCodeableConcept": {
                                    "coding": [
                                        {
                                            "system": "urn:oid:1.2.840.114350.1.13.0.1.7.4.698084.18832",
                                            "code": "20",
                                            "display": "Neurosurgery"
                                        }
                                    ],
                                    "text": "Neurosurgery"
                                },
                                "url": "http://open.epic.com/FHIR/StructureDefinition/extension/specialty"
                            }
                        ],
                        "type": [
                            {
                                "coding": [
                                    {
                                        "system": "urn:oid:1.2.840.114350.1.13.0.1.7.10.698084.18869",
                                        "code": "Consult MD",
                                        "display": "Consulting Physician"
                                    }
                                ],
                                "text": "Consulting Physician"
                            }
                        ],
                        "period": {
                            "start": "2024-07-19T16:55:42Z"
                        },
                        "individual": {
                            "reference": "Practitioner/e-wBCu.FH.bsA79ixfOASXA3",
                            "type": "Practitioner",
                            "display": "Physician Neurosurgery, MD"
                        }
                    },
                    {
                        "extension": [
                            {
                                "valueCodeableConcept": {
                                    "coding": [
                                        {
                                            "system": "urn:oid:1.2.840.114350.1.13.0.1.7.4.698084.18832",
                                            "code": "20",
                                            "display": "Neurosurgery"
                                        }
                                    ],
                                    "text": "Neurosurgery"
                                },
                                "url": "http://open.epic.com/FHIR/StructureDefinition/extension/specialty"
                            }
                        ],
                        "type": [
                            {
                                "coding": [
                                    {
                                        "system": "urn:oid:1.2.840.114350.1.13.0.1.7.10.698084.18869",
                                        "code": "Surgeon",
                                        "display": "Surgeon"
                                    }
                                ],
                                "text": "Surgeon"
                            }
                        ],
                        "period": {
                            "start": "2024-07-19T18:26:13Z"
                        },
                        "individual": {
                            "reference": "Practitioner/e-wBCu.FH.bsA79ixfOASXA3",
                            "type": "Practitioner",
                            "display": "Physician Neurosurgery, MD"
                        }
                    }
                ],
                "period": {
                    "start": "2024-07-19T16:47:38Z"
                },
                "reasonCode": [
                    {
                        "coding": [
                            {
                                "system": "http://snomed.info/sct",
                                "code": "254935002",
                                "display": "Intracranial tumor (disorder)"
                            }
                        ],
                        "text": "Brain tumor (CMS/HCC)"
                    },
                    {
                        "coding": [
                            {
                                "system": "http://snomed.info/sct",
                                "code": "92824003",
                                "display": "Neurofibromatosis, type 1 (disorder)"
                            }
                        ],
                        "text": "Type 1 neurofibromatosis (CMS/HCC)"
                    }
                ],
                "account": [
                    {
                        "identifier": {
                            "system": "urn:oid:1.2.840.114350.1.13.0.1.7.2.726582",
                            "value": "2696"
                        },
                        "display": "HARE,HEIDI OPTIME"
                    }
                ],
                "hospitalization": {
                    "extension": [
                        {
                            "valueDateTime": "2024-07-19T16:47:38Z",
                            "url": "http://open.epic.com/FHIR/StructureDefinition/extension/ip-admit-datetime"
                        }
                    ],
                    "admitSource": {
                        "coding": [
                            {
                                "system": "urn:oid:1.2.840.114350.1.13.0.1.7.10.698084.10310",
                                "code": "1",
                                "display": "Non-Healthcare Facility"
                            }
                        ],
                        "text": "Non-Healthcare Facility"
                    }
                },
                "location": [
                    {
                        "location": {
                            "reference": "Location/eZLHPE-Nzb5bWJhhb-M820hOpBX3gdn5tmWzBGuiRSwA3",
                            "display": "EPH Intensive Care"
                        },
                        "period": {
                            "start": "2024-07-19T16:47:00Z"
                        }
                    },
                    {
                        "location": {
                            "reference": "Location/eO-3e71xq6A5Xp7leBMrw5X-8sAl6UHIF91p7maQKFdU3",
                            "display": "EMH Medical Surgical"
                        }
                    },
                    {
                        "location": {
                            "reference": "Location/eQSOrLdbVrMRc68KBcTBG4A3",
                            "display": "Epic Hospital System"
                        }
                    },
                    {
                        "location": {
                            "reference": "Location/e-hopA68N.fD7IU7OExWLSg3",
                            "display": "MS Pool Room 2"
                        },
                        "physicalType": {
                            "coding": [
                                {
                                    "system": "http://terminology.hl7.org/CodeSystem/location-physical-type",
                                    "code": "ro",
                                    "display": "Room"
                                }
                            ],
                            "text": "Room"
                        }
                    },
                    {
                        "location": {
                            "identifier": {
                                "system": "urn:oid:1.2.840.114350.1.13.0.1.7.2.666968",
                                "value": "949"
                            },
                            "display": "MS Pool Bed"
                        },
                        "physicalType": {
                            "coding": [
                                {
                                    "system": "http://terminology.hl7.org/CodeSystem/location-physical-type",
                                    "code": "bd",
                                    "display": "Bed"
                                }
                            ],
                            "text": "Bed"
                        }
                    }
                ]
            },
            "search": {
                "mode": "match"
            }
        },
        {
            "link": [
                {
                    "relation": "self",
                    "url": "https://appmarket.epic.com/interconnect-amcurprd-oauth/api/FHIR/R4/Encounter/exeDxW5luArjzgsFcXDmLtg3"
                }
            ],
            "fullUrl": "https://appmarket.epic.com/interconnect-amcurprd-oauth/api/FHIR/R4/Encounter/exeDxW5luArjzgsFcXDmLtg3",
            "resource": {
                "resourceType": "Encounter",
                "id": "exeDxW5luArjzgsFcXDmLtg3",
                "extension": [
                    {
                        "valueBoolean": false,
                        "url": "http://open.epic.com/FHIR/StructureDefinition/extension/accidentrelated"
                    }
                ],
                "identifier": [
                    {
                        "use": "usual",
                        "system": "urn:oid:1.2.840.114350.1.13.0.1.7.3.698084.8",
                        "value": "26449"
                    }
                ],
                "status": "finished",
                "class": {
                    "system": "urn:oid:1.2.840.114350.1.72.1.7.7.10.696784.13260",
                    "code": "5",
                    "display": "Appointment"
                },
                "type": [
                    {
                        "coding": [
                            {
                                "system": "urn:oid:1.2.840.114350.1.13.0.1.7.10.698084.10110",
                                "code": "101",
                                "display": "Inpatient"
                            }
                        ],
                        "text": "Inpatient"
                    },
                    {
                        "coding": [
                            {
                                "system": "urn:oid:1.2.840.114350.1.13.0.1.7.10.698084.30",
                                "code": "50",
                                "display": "Appointment"
                            }
                        ],
                        "text": "Appointment"
                    },
                    {
                        "coding": [
                            {
                                "system": "urn:oid:1.2.840.114350.1.13.0.1.7.2.808267",
                                "code": "15971",
                                "display": "MRI Anesthesia"
                            }
                        ],
                        "text": "MRI Anesthesia"
                    },
                    {
                        "coding": [
                            {
                                "system": "urn:oid:1.2.840.114350.1.13.0.1.7.10.698084.18875",
                                "code": "9",
                                "display": "Information Not Available"
                            }
                        ],
                        "text": "Information Not Available"
                    }
                ],
                "subject": {
                    "reference": "Patient/eprNPy2FVITyhBBiWCWZKCA3",
                    "display": "Hare, Heidi OpTime"
                },
                "participant": [
                    {
                        "type": [
                            {
                                "coding": [
                                    {
                                        "system": "http://hl7.org/fhir/v3/ParticipationType",
                                        "code": "REF",
                                        "display": "referrer"
                                    }
                                ],
                                "text": "referrer"
                            }
                        ],
                        "individual": {
                            "reference": "Practitioner/eoScyX3bs1SY.2lMoHCGcVw3",
                            "type": "Practitioner",
                            "display": "Physician Pediatrics, MD"
                        }
                    },
                    {
                        "period": {
                            "start": "2024-07-12T20:45:00Z",
                            "end": "2024-07-12T22:15:00Z"
                        },
                        "individual": {
                            "display": "EPH MRI"
                        }
                    }
                ],
                "period": {
                    "start": "2024-07-12T20:45:00Z",
                    "end": "2024-07-12T22:15:00Z"
                },
                "account": [
                    {
                        "identifier": {
                            "system": "urn:oid:1.2.840.114350.1.13.0.1.7.2.726582",
                            "value": "2697"
                        },
                        "display": "HARE,HEIDI OPTIME"
                    }
                ],
                "hospitalization": {
                    "admitSource": {
                        "coding": [
                            {
                                "system": "urn:oid:1.2.840.114350.1.13.0.1.7.10.698084.10310",
                                "code": "1",
                                "display": "Non-Healthcare Facility"
                            }
                        ],
                        "text": "Non-Healthcare Facility"
                    }
                },
                "location": [
                    {
                        "location": {
                            "reference": "Location/etm-OvPGeU5YC7MTbZt0mOvh-690-ygRvlMS0KuFaL3I3",
                            "display": "EPH MR Imaging"
                        }
                    }
                ],
                "partOf": {
                    "reference": "Encounter/ervAJTD4BuoU.etJ-2hrT.w3",
                    "identifier": {
                        "use": "usual",
                        "system": "urn:oid:1.2.840.114350.1.13.0.1.7.3.698084.8",
                        "value": "26446"
                    },
                    "display": "Hospital Encounter"
                }
            },
            "search": {
                "mode": "match"
            }
        },
        {
            "link": [
                {
                    "relation": "self",
                    "url": "https://appmarket.epic.com/interconnect-amcurprd-oauth/api/FHIR/R4/Encounter/ervAJTD4BuoU.etJ-2hrT.w3"
                }
            ],
            "fullUrl": "https://appmarket.epic.com/interconnect-amcurprd-oauth/api/FHIR/R4/Encounter/ervAJTD4BuoU.etJ-2hrT.w3",
            "resource": {
                "resourceType": "Encounter",
                "id": "ervAJTD4BuoU.etJ-2hrT.w3",
                "extension": [
                    {
                        "valueBoolean": false,
                        "url": "http://open.epic.com/FHIR/StructureDefinition/extension/accidentrelated"
                    }
                ],
                "identifier": [
                    {
                        "use": "usual",
                        "system": "urn:oid:1.2.840.114350.1.13.0.1.7.3.698084.8",
                        "value": "26446"
                    }
                ],
                "status": "finished",
                "class": {
                    "system": "urn:oid:1.2.840.114350.1.72.1.7.7.10.696784.13260",
                    "code": "6",
                    "display": "Discharge"
                },
                "type": [
                    {
                        "coding": [
                            {
                                "system": "urn:oid:1.2.840.114350.1.13.0.1.7.10.698084.10110",
                                "code": "101",
                                "display": "Inpatient"
                            }
                        ],
                        "text": "Inpatient"
                    },
                    {
                        "coding": [
                            {
                                "system": "urn:oid:1.2.840.114350.1.13.0.1.7.10.698084.30",
                                "code": "3",
                                "display": "Hospital Encounter"
                            }
                        ],
                        "text": "Hospital Encounter"
                    },
                    {
                        "coding": [
                            {
                                "system": "urn:oid:1.2.840.114350.1.13.0.1.7.10.698084.18875",
                                "code": "9",
                                "display": "Information Not Available"
                            }
                        ],
                        "text": "Information Not Available"
                    }
                ],
                "serviceType": {
                    "coding": [
                        {
                            "system": "urn:oid:1.2.840.114350.1.13.0.1.7.10.698084.18886",
                            "code": "120",
                            "display": "Pediatric ICU"
                        }
                    ],
                    "text": "Pediatric ICU"
                },
                "subject": {
                    "reference": "Patient/eprNPy2FVITyhBBiWCWZKCA3",
                    "display": "Hare, Heidi OpTime"
                },
                "participant": [
                    {
                        "type": [
                            {
                                "coding": [
                                    {
                                        "system": "http://hl7.org/fhir/v3/ParticipationType",
                                        "code": "ADM",
                                        "display": "admitter"
                                    }
                                ],
                                "text": "admitter"
                            }
                        ],
                        "individual": {
                            "reference": "Practitioner/e4mnGt8AoLN8TrqZFnsrvmg3",
                            "type": "Practitioner",
                            "display": "Physician Two Pediatrics, MD"
                        }
                    },
                    {
                        "type": [
                            {
                                "coding": [
                                    {
                                        "system": "http://hl7.org/fhir/v3/ParticipationType",
                                        "code": "ATND",
                                        "display": "attender"
                                    }
                                ],
                                "text": "attender"
                            }
                        ],
                        "period": {
                            "start": "2024-07-12T19:30:00Z",
                            "end": "2024-07-13T01:05:00Z"
                        },
                        "individual": {
                            "reference": "Practitioner/e4mnGt8AoLN8TrqZFnsrvmg3",
                            "type": "Practitioner",
                            "display": "Physician Two Pediatrics, MD"
                        }
                    },
                    {
                        "extension": [
                            {
                                "valueCodeableConcept": {
                                    "coding": [
                                        {
                                            "system": "urn:oid:1.2.840.114350.1.13.0.1.7.4.698084.18832",
                                            "code": "2",
                                            "display": "Anesthesiology"
                                        }
                                    ],
                                    "text": "Anesthesiology"
                                },
                                "url": "http://open.epic.com/FHIR/StructureDefinition/extension/specialty"
                            }
                        ],
                        "type": [
                            {
                                "coding": [
                                    {
                                        "system": "urn:oid:1.2.840.114350.1.13.0.1.7.10.698084.18869",
                                        "code": "Anesthesiolo",
                                        "display": "Anesthesiologist"
                                    }
                                ],
                                "text": "Anesthesiologist"
                            }
                        ],
                        "period": {
                            "start": "2024-07-12T22:58:30Z"
                        },
                        "individual": {
                            "reference": "Practitioner/enHmcmrIOygs4mq-t6soebQ3",
                            "type": "Practitioner",
                            "display": "Anesthesiologist Anesthesia, MD"
                        }
                    }
                ],
                "period": {
                    "start": "2024-07-12T19:30:00Z",
                    "end": "2024-07-13T01:05:00Z"
                },
                "reasonCode": [
                    {
                        "coding": [
                            {
                                "system": "http://snomed.info/sct",
                                "code": "37796009",
                                "display": "Migraine (disorder)"
                            }
                        ],
                        "text": "Headache, migraine"
                    }
                ],
                "diagnosis": [
                    {
                        "condition": {
                            "reference": "Condition/e-v0rw8HJuNWZagdtW3nvew3",
                            "display": "Generalized headaches"
                        }
                    }
                ],
                "account": [
                    {
                        "identifier": {
                            "system": "urn:oid:1.2.840.114350.1.13.0.1.7.2.726582",
                            "value": "2697"
                        },
                        "display": "HARE,HEIDI OPTIME"
                    }
                ],
                "hospitalization": {
                    "extension": [
                        {
                            "valueDateTime": "2024-07-12T19:30:00Z",
                            "url": "http://open.epic.com/FHIR/StructureDefinition/extension/ip-admit-datetime"
                        }
                    ],
                    "admitSource": {
                        "coding": [
                            {
                                "system": "urn:oid:1.2.840.114350.1.13.0.1.7.10.698084.10310",
                                "code": "1",
                                "display": "Non-Healthcare Facility"
                            }
                        ],
                        "text": "Non-Healthcare Facility"
                    },
                    "dischargeDisposition": {
                        "coding": [
                            {
                                "system": "urn:oid:1.2.840.114350.1.13.0.1.7.10.698084.18888",
                                "code": "1",
                                "display": "Home or Self Care"
                            }
                        ],
                        "text": "Home or Self Care"
                    }
                },
                "location": [
                    {
                        "location": {
                            "reference": "Location/eZLHPE-Nzb5bWJhhb-M820hOpBX3gdn5tmWzBGuiRSwA3",
                            "display": "EPH Intensive Care"
                        },
                        "period": {
                            "start": "2024-07-12T19:30:00Z",
                            "end": "2024-07-12T23:06:00Z"
                        }
                    },
                    {
                        "location": {
                            "reference": "Location/eHeR2B2gdVSvTnVj1hBDiZYsgc-X0LxWezfOe.ofOWm03",
                            "display": "EPH Main Operating Room"
                        },
                        "period": {
                            "start": "2024-07-12T23:06:00Z",
                            "end": "2024-07-13T01:05:00Z"
                        }
                    },
                    {
                        "location": {
                            "reference": "Location/eHeR2B2gdVSvTnVj1hBDiZYsgc-X0LxWezfOe.ofOWm03",
                            "display": "EPH Main Operating Room"
                        }
                    },
                    {
                        "location": {
                            "reference": "Location/eQSOrLdbVrMRc68KBcTBG4A3",
                            "display": "Epic Hospital System"
                        }
                    },
                    {
                        "location": {
                            "reference": "Location/en0oEv2BUMPd3.8QWzhJ8Mg3",
                            "display": "OR"
                        },
                        "physicalType": {
                            "coding": [
                                {
                                    "system": "http://terminology.hl7.org/CodeSystem/location-physical-type",
                                    "code": "ro",
                                    "display": "Room"
                                }
                            ],
                            "text": "Room"
                        }
                    },
                    {
                        "location": {
                            "identifier": {
                                "system": "urn:oid:1.2.840.114350.1.13.0.1.7.2.666968",
                                "value": "1270"
                            },
                            "display": "Ped OR"
                        },
                        "physicalType": {
                            "coding": [
                                {
                                    "system": "http://terminology.hl7.org/CodeSystem/location-physical-type",
                                    "code": "bd",
                                    "display": "Bed"
                                }
                            ],
                            "text": "Bed"
                        }
                    }
                ]
            },
            "search": {
                "mode": "match"
            }
        },
        {
            "link": [
                {
                    "relation": "self",
                    "url": "https://appmarket.epic.com/interconnect-amcurprd-oauth/api/FHIR/R4/Encounter/eCzBvohx8n-ZzzLxsMQnA3A3"
                }
            ],
            "fullUrl": "https://appmarket.epic.com/interconnect-amcurprd-oauth/api/FHIR/R4/Encounter/eCzBvohx8n-ZzzLxsMQnA3A3",
            "resource": {
                "resourceType": "Encounter",
                "id": "eCzBvohx8n-ZzzLxsMQnA3A3",
                "identifier": [
                    {
                        "use": "usual",
                        "system": "urn:oid:1.2.840.114350.1.13.0.1.7.3.698084.8",
                        "value": "26455"
                    }
                ],
                "status": "unknown",
                "class": {
                    "system": "urn:oid:1.2.840.114350.1.72.1.7.7.10.696784.13260",
                    "code": "1",
                    "display": "Surgery Case"
                },
                "type": [
                    {
                        "coding": [
                            {
                                "system": "urn:oid:1.2.840.114350.1.13.0.1.7.10.698084.30",
                                "code": "51",
                                "display": "Surgery"
                            }
                        ],
                        "text": "Surgery"
                    }
                ],
                "subject": {
                    "reference": "Patient/eprNPy2FVITyhBBiWCWZKCA3",
                    "display": "Hare, Heidi OpTime"
                },
                "period": {
                    "start": "2016-07-21T14:00:00Z",
                    "end": "2016-07-21T20:00:00Z"
                },
                "location": [
                    {
                        "location": {
                            "reference": "Location/ert3nyZA51TlXCz4kOqu-be.qPr.V1DS1Q1kVfx6Oxak3",
                            "display": "EPH Operating Room"
                        }
                    }
                ],
                "partOf": {
                    "reference": "Encounter/e1akXOF54LRGtevchM2kZlg3",
                    "identifier": {
                        "use": "usual",
                        "system": "urn:oid:1.2.840.114350.1.13.0.1.7.3.698084.8",
                        "value": "26452"
                    },
                    "display": "Hospital Encounter"
                }
            },
            "search": {
                "mode": "match"
            }
        },
        {
            "link": [
                {
                    "relation": "self",
                    "url": "https://appmarket.epic.com/interconnect-amcurprd-oauth/api/FHIR/R4/Condition/e-v0rw8HJuNWZagdtW3nvew3"
                }
            ],
            "fullUrl": "https://appmarket.epic.com/interconnect-amcurprd-oauth/api/FHIR/R4/Condition/e-v0rw8HJuNWZagdtW3nvew3",
            "resource": {
                "resourceType": "Condition",
                "id": "e-v0rw8HJuNWZagdtW3nvew3",
                "clinicalStatus": {
                    "coding": [
                        {
                            "system": "http://terminology.hl7.org/CodeSystem/condition-clinical",
                            "version": "4.0.0",
                            "code": "active",
                            "display": "Active"
                        }
                    ],
                    "text": "Active"
                },
                "verificationStatus": {
                    "coding": [
                        {
                            "system": "http://terminology.hl7.org/CodeSystem/condition-ver-status",
                            "version": "4.0.0",
                            "code": "confirmed",
                            "display": "Confirmed"
                        }
                    ],
                    "text": "Confirmed"
                },
                "category": [
                    {
                        "coding": [
                            {
                                "system": "http://terminology.hl7.org/CodeSystem/condition-category",
                                "code": "problem-list-item",
                                "display": "Problem List Item"
                            }
                        ],
                        "text": "Problem List Item"
                    }
                ],
                "code": {
                    "coding": [
                        {
                            "system": "http://hl7.org/fhir/sid/icd-10-cm",
                            "code": "R51"
                        },
                        {
                            "system": "http://snomed.info/sct",
                            "code": "162299003"
                        }
                    ],
                    "text": "Generalized headaches"
                },
                "subject": {
                    "reference": "Patient/eprNPy2FVITyhBBiWCWZKCA3",
                    "display": "Hare, Heidi OpTime"
                },
                "onsetPeriod": {
                    "start": "2024-07-12",
                    "end": "2024-07-12"
                },
                "recordedDate": "2024-07-12"
            },
            "search": {
                "mode": "include"
            }
        },
        {
            "link": [
                {
                    "relation": "self",
                    "url": "https://appmarket.epic.com/interconnect-amcurprd-oauth/api/FHIR/R4/Encounter/e1akXOF54LRGtevchM2kZlg3"
                }
            ],
            "fullUrl": "https://appmarket.epic.com/interconnect-amcurprd-oauth/api/FHIR/R4/Encounter/e1akXOF54LRGtevchM2kZlg3",
            "resource": {
                "resourceType": "Encounter",
                "id": "e1akXOF54LRGtevchM2kZlg3",
                "extension": [
                    {
                        "valueBoolean": false,
                        "url": "http://open.epic.com/FHIR/StructureDefinition/extension/accidentrelated"
                    }
                ],
                "identifier": [
                    {
                        "use": "usual",
                        "system": "urn:oid:1.2.840.114350.1.13.0.1.7.3.698084.8",
                        "value": "26452"
                    }
                ],
                "status": "in-progress",
                "class": {
                    "system": "urn:oid:1.2.840.114350.1.72.1.7.7.10.696784.13260",
                    "code": "3",
                    "display": "Admission"
                },
                "type": [
                    {
                        "coding": [
                            {
                                "system": "urn:oid:1.2.840.114350.1.13.0.1.7.10.698084.10110",
                                "code": "101",
                                "display": "Inpatient"
                            }
                        ],
                        "text": "Inpatient"
                    },
                    {
                        "coding": [
                            {
                                "system": "urn:oid:1.2.840.114350.1.13.0.1.7.10.698084.30",
                                "code": "3",
                                "display": "Hospital Encounter"
                            }
                        ],
                        "text": "Hospital Encounter"
                    },
                    {
                        "coding": [
                            {
                                "system": "urn:oid:1.2.840.114350.1.13.0.1.7.10.698084.18875",
                                "code": "3",
                                "display": "Elective"
                            }
                        ],
                        "text": "Elective"
                    }
                ],
                "serviceType": {
                    "coding": [
                        {
                            "system": "urn:oid:1.2.840.114350.1.13.0.1.7.10.698084.18886",
                            "code": "120",
                            "display": "Pediatric ICU"
                        }
                    ],
                    "text": "Pediatric ICU"
                },
                "subject": {
                    "reference": "Patient/eprNPy2FVITyhBBiWCWZKCA3",
                    "display": "Hare, Heidi OpTime"
                },
                "participant": [
                    {
                        "type": [
                            {
                                "coding": [
                                    {
                                        "system": "http://hl7.org/fhir/v3/ParticipationType",
                                        "code": "ADM",
                                        "display": "admitter"
                                    }
                                ],
                                "text": "admitter"
                            }
                        ],
                        "individual": {
                            "reference": "Practitioner/e4mnGt8AoLN8TrqZFnsrvmg3",
                            "type": "Practitioner",
                            "display": "Physician Two Pediatrics, MD"
                        }
                    },
                    {
                        "type": [
                            {
                                "coding": [
                                    {
                                        "system": "http://hl7.org/fhir/v3/ParticipationType",
                                        "code": "ATND",
                                        "display": "attender"
                                    }
                                ],
                                "text": "attender"
                            }
                        ],
                        "period": {
                            "start": "2024-07-19T16:47:38Z"
                        },
                        "individual": {
                            "reference": "Practitioner/e4mnGt8AoLN8TrqZFnsrvmg3",
                            "type": "Practitioner",
                            "display": "Physician Two Pediatrics, MD"
                        }
                    },
                    {
                        "extension": [
                            {
                                "valueCodeableConcept": {
                                    "coding": [
                                        {
                                            "system": "urn:oid:1.2.840.114350.1.13.0.1.7.4.698084.18832",
                                            "code": "20",
                                            "display": "Neurosurgery"
                                        }
                                    ],
                                    "text": "Neurosurgery"
                                },
                                "url": "http://open.epic.com/FHIR/StructureDefinition/extension/specialty"
                            }
                        ],
                        "type": [
                            {
                                "coding": [
                                    {
                                        "system": "urn:oid:1.2.840.114350.1.13.0.1.7.10.698084.18869",
                                        "code": "Consult MD",
                                        "display": "Consulting Physician"
                                    }
                                ],
                                "text": "Consulting Physician"
                            }
                        ],
                        "period": {
                            "start": "2024-07-19T16:55:42Z"
                        },
                        "individual": {
                            "reference": "Practitioner/e-wBCu.FH.bsA79ixfOASXA3",
                            "type": "Practitioner",
                            "display": "Physician Neurosurgery, MD"
                        }
                    },
                    {
                        "extension": [
                            {
                                "valueCodeableConcept": {
                                    "coding": [
                                        {
                                            "system": "urn:oid:1.2.840.114350.1.13.0.1.7.4.698084.18832",
                                            "code": "20",
                                            "display": "Neurosurgery"
                                        }
                                    ],
                                    "text": "Neurosurgery"
                                },
                                "url": "http://open.epic.com/FHIR/StructureDefinition/extension/specialty"
                            }
                        ],
                        "type": [
                            {
                                "coding": [
                                    {
                                        "system": "urn:oid:1.2.840.114350.1.13.0.1.7.10.698084.18869",
                                        "code": "Surgeon",
                                        "display": "Surgeon"
                                    }
                                ],
                                "text": "Surgeon"
                            }
                        ],
                        "period": {
                            "start": "2024-07-19T18:26:13Z"
                        },
                        "individual": {
                            "reference": "Practitioner/e-wBCu.FH.bsA79ixfOASXA3",
                            "type": "Practitioner",
                            "display": "Physician Neurosurgery, MD"
                        }
                    }
                ],
                "period": {
                    "start": "2024-07-19T16:47:38Z"
                },
                "reasonCode": [
                    {
                        "coding": [
                            {
                                "system": "http://snomed.info/sct",
                                "code": "254935002",
                                "display": "Intracranial tumor (disorder)"
                            }
                        ],
                        "text": "Brain tumor (CMS/HCC)"
                    },
                    {
                        "coding": [
                            {
                                "system": "http://snomed.info/sct",
                                "code": "92824003",
                                "display": "Neurofibromatosis, type 1 (disorder)"
                            }
                        ],
                        "text": "Type 1 neurofibromatosis (CMS/HCC)"
                    }
                ],
                "account": [
                    {
                        "identifier": {
                            "system": "urn:oid:1.2.840.114350.1.13.0.1.7.2.726582",
                            "value": "2696"
                        },
                        "display": "HARE,HEIDI OPTIME"
                    }
                ],
                "hospitalization": {
                    "extension": [
                        {
                            "valueDateTime": "2024-07-19T16:47:38Z",
                            "url": "http://open.epic.com/FHIR/StructureDefinition/extension/ip-admit-datetime"
                        }
                    ],
                    "admitSource": {
                        "coding": [
                            {
                                "system": "urn:oid:1.2.840.114350.1.13.0.1.7.10.698084.10310",
                                "code": "1",
                                "display": "Non-Healthcare Facility"
                            }
                        ],
                        "text": "Non-Healthcare Facility"
                    }
                },
                "location": [
                    {
                        "location": {
                            "reference": "Location/eZLHPE-Nzb5bWJhhb-M820hOpBX3gdn5tmWzBGuiRSwA3",
                            "display": "EPH Intensive Care"
                        },
                        "period": {
                            "start": "2024-07-19T16:47:00Z"
                        }
                    },
                    {
                        "location": {
                            "reference": "Location/eO-3e71xq6A5Xp7leBMrw5X-8sAl6UHIF91p7maQKFdU3",
                            "display": "EMH Medical Surgical"
                        }
                    },
                    {
                        "location": {
                            "reference": "Location/eQSOrLdbVrMRc68KBcTBG4A3",
                            "display": "Epic Hospital System"
                        }
                    },
                    {
                        "location": {
                            "reference": "Location/e-hopA68N.fD7IU7OExWLSg3",
                            "display": "MS Pool Room 2"
                        },
                        "physicalType": {
                            "coding": [
                                {
                                    "system": "http://terminology.hl7.org/CodeSystem/location-physical-type",
                                    "code": "ro",
                                    "display": "Room"
                                }
                            ],
                            "text": "Room"
                        }
                    },
                    {
                        "location": {
                            "identifier": {
                                "system": "urn:oid:1.2.840.114350.1.13.0.1.7.2.666968",
                                "value": "949"
                            },
                            "display": "MS Pool Bed"
                        },
                        "physicalType": {
                            "coding": [
                                {
                                    "system": "http://terminology.hl7.org/CodeSystem/location-physical-type",
                                    "code": "bd",
                                    "display": "Bed"
                                }
                            ],
                            "text": "Bed"
                        }
                    }
                ]
            },
            "search": {
                "mode": "include"
            }
        },
        {
            "link": [
                {
                    "relation": "self",
                    "url": "https://appmarket.epic.com/interconnect-amcurprd-oauth/api/FHIR/R4/Patient/eprNPy2FVITyhBBiWCWZKCA3"
                }
            ],
            "fullUrl": "https://appmarket.epic.com/interconnect-amcurprd-oauth/api/FHIR/R4/Patient/eprNPy2FVITyhBBiWCWZKCA3",
            "resource": {
                "resourceType": "Patient",
                "id": "eprNPy2FVITyhBBiWCWZKCA3",
                "extension": [
                    {
                        "extension": [
                            {
                                "valueCoding": {
                                    "system": "urn:oid:2.16.840.1.113883.6.238",
                                    "code": "2106-3",
                                    "display": "White"
                                },
                                "url": "ombCategory"
                            },
                            {
                                "valueString": "White",
                                "url": "text"
                            }
                        ],
                        "url": "http://hl7.org/fhir/us/core/StructureDefinition/us-core-race"
                    },
                    {
                        "extension": [
                            {
                                "valueCoding": {
                                    "system": "urn:oid:2.16.840.1.113883.6.238",
                                    "code": "2186-5",
                                    "display": "Not Hispanic or Latino"
                                },
                                "url": "ombCategory"
                            },
                            {
                                "valueString": "Not Hispanic or Latino",
                                "url": "text"
                            }
                        ],
                        "url": "http://hl7.org/fhir/us/core/StructureDefinition/us-core-ethnicity"
                    },
                    {
                        "valueCodeableConcept": {
                            "coding": [
                                {
                                    "system": "urn:oid:1.2.840.114350.1.13.0.1.7.10.698084.130.657370.19999000",
                                    "code": "female",
                                    "display": "female"
                                }
                            ]
                        },
                        "url": "http://open.epic.com/FHIR/StructureDefinition/extension/legal-sex"
                    },
                    {
                        "valueCodeableConcept": {
                            "coding": [
                                {
                                    "system": "urn:oid:1.2.840.114350.1.13.0.1.7.10.698084.130.657370.19999000",
                                    "code": "female",
                                    "display": "female"
                                }
                            ]
                        },
                        "url": "http://open.epic.com/FHIR/StructureDefinition/extension/sex-for-clinical-use"
                    },
                    {
                        "valueCode": "F",
                        "url": "http://hl7.org/fhir/us/core/StructureDefinition/us-core-birthsex"
                    }
                ],
                "identifier": [
                    {
                        "use": "usual",
                        "system": "urn:oid:2.16.840.1.113883.4.1",
                        "value": "126-31-7229"
                    },
                    {
                        "use": "usual",
                        "type": {
                            "text": "CEID"
                        },
                        "system": "urn:epic:apporchard.curprod",
                        "value": "AO1HKXK7GV54QMT"
                    },
                    {
                        "use": "usual",
                        "type": {
                            "text": "EPIC"
                        },
                        "system": "urn:oid:1.2.840.114350.1.1",
                        "value": "E7378"
                    },
                    {
                        "use": "usual",
                        "type": {
                            "text": "EXTERNAL"
                        },
                        "system": "urn:oid:1.2.840.114350.1.13.0.1.7.2.698084",
                        "value": "Z6018"
                    },
                    {
                        "use": "usual",
                        "type": {
                            "text": "FHIR"
                        },
                        "system": "http://open.epic.com/FHIR/StructureDefinition/patient-dstu2-fhir-id",
                        "value": "TJiLnOamculCPj2Mie2lDiINYTHMafX2rL8XBytxw3N0B"
                    },
                    {
                        "use": "usual",
                        "type": {
                            "text": "FHIR STU3"
                        },
                        "system": "http://open.epic.com/FHIR/StructureDefinition/patient-fhir-id",
                        "value": "eprNPy2FVITyhBBiWCWZKCA3"
                    },
                    {
                        "use": "usual",
                        "type": {
                            "text": "INTERNAL"
                        },
                        "system": "urn:oid:1.2.840.114350.1.13.0.1.7.2.698084",
                        "value": "     Z6018"
                    },
                    {
                        "use": "usual",
                        "type": {
                            "text": "MRN"
                        },
                        "system": "urn:oid:1.2.840.114350.1.13.0.1.7.5.737384.14",
                        "value": "207024"
                    },
                    {
                        "use": "usual",
                        "type": {
                            "text": "WPRINTERNAL"
                        },
                        "system": "urn:oid:1.2.840.114350.1.13.0.1.7.2.878082",
                        "value": "1001"
                    }
                ],
                "active": true,
                "name": [
                    {
                        "use": "official",
                        "text": "Heidi OpTime Hare",
                        "family": "Hare",
                        "given": [
                            "Heidi",
                            "OpTime"
                        ]
                    },
                    {
                        "use": "usual",
                        "text": "Heidi OpTime Hare",
                        "family": "Hare",
                        "given": [
                            "Heidi",
                            "OpTime"
                        ]
                    }
                ],
                "telecom": [
                    {
                        "system": "phone",
                        "value": "608-271-9000",
                        "use": "home"
                    }
                ],
                "gender": "female",
                "birthDate": "2010-12-12",
                "deceasedBoolean": false,
                "address": [
                    {
                        "use": "home",
                        "line": [
                            "1979 Milky Way"
                        ],
                        "city": "VERONA",
                        "district": "DANE",
                        "state": "WI",
                        "postalCode": "53593",
                        "country": "US"
                    }
                ],
                "maritalStatus": {
                    "text": "Single"
                },
                "managingOrganization": {
                    "reference": "Organization/enRyWnSP963FYDpoks4NHOA3",
                    "display": "Epic Hospital System"
                }
            },
            "search": {
                "mode": "include"
            }
        },
        {
            "link": [
                {
                    "relation": "self",
                    "url": "https://appmarket.epic.com/interconnect-amcurprd-oauth/api/FHIR/R4/Encounter/ervAJTD4BuoU.etJ-2hrT.w3"
                }
            ],
            "fullUrl": "https://appmarket.epic.com/interconnect-amcurprd-oauth/api/FHIR/R4/Encounter/ervAJTD4BuoU.etJ-2hrT.w3",
            "resource": {
                "resourceType": "Encounter",
                "id": "ervAJTD4BuoU.etJ-2hrT.w3",
                "extension": [
                    {
                        "valueBoolean": false,
                        "url": "http://open.epic.com/FHIR/StructureDefinition/extension/accidentrelated"
                    }
                ],
                "identifier": [
                    {
                        "use": "usual",
                        "system": "urn:oid:1.2.840.114350.1.13.0.1.7.3.698084.8",
                        "value": "26446"
                    }
                ],
                "status": "finished",
                "class": {
                    "system": "urn:oid:1.2.840.114350.1.72.1.7.7.10.696784.13260",
                    "code": "6",
                    "display": "Discharge"
                },
                "type": [
                    {
                        "coding": [
                            {
                                "system": "urn:oid:1.2.840.114350.1.13.0.1.7.10.698084.10110",
                                "code": "101",
                                "display": "Inpatient"
                            }
                        ],
                        "text": "Inpatient"
                    },
                    {
                        "coding": [
                            {
                                "system": "urn:oid:1.2.840.114350.1.13.0.1.7.10.698084.30",
                                "code": "3",
                                "display": "Hospital Encounter"
                            }
                        ],
                        "text": "Hospital Encounter"
                    },
                    {
                        "coding": [
                            {
                                "system": "urn:oid:1.2.840.114350.1.13.0.1.7.10.698084.18875",
                                "code": "9",
                                "display": "Information Not Available"
                            }
                        ],
                        "text": "Information Not Available"
                    }
                ],
                "serviceType": {
                    "coding": [
                        {
                            "system": "urn:oid:1.2.840.114350.1.13.0.1.7.10.698084.18886",
                            "code": "120",
                            "display": "Pediatric ICU"
                        }
                    ],
                    "text": "Pediatric ICU"
                },
                "subject": {
                    "reference": "Patient/eprNPy2FVITyhBBiWCWZKCA3",
                    "display": "Hare, Heidi OpTime"
                },
                "participant": [
                    {
                        "type": [
                            {
                                "coding": [
                                    {
                                        "system": "http://hl7.org/fhir/v3/ParticipationType",
                                        "code": "ADM",
                                        "display": "admitter"
                                    }
                                ],
                                "text": "admitter"
                            }
                        ],
                        "individual": {
                            "reference": "Practitioner/e4mnGt8AoLN8TrqZFnsrvmg3",
                            "type": "Practitioner",
                            "display": "Physician Two Pediatrics, MD"
                        }
                    },
                    {
                        "type": [
                            {
                                "coding": [
                                    {
                                        "system": "http://hl7.org/fhir/v3/ParticipationType",
                                        "code": "ATND",
                                        "display": "attender"
                                    }
                                ],
                                "text": "attender"
                            }
                        ],
                        "period": {
                            "start": "2024-07-12T19:30:00Z",
                            "end": "2024-07-13T01:05:00Z"
                        },
                        "individual": {
                            "reference": "Practitioner/e4mnGt8AoLN8TrqZFnsrvmg3",
                            "type": "Practitioner",
                            "display": "Physician Two Pediatrics, MD"
                        }
                    },
                    {
                        "extension": [
                            {
                                "valueCodeableConcept": {
                                    "coding": [
                                        {
                                            "system": "urn:oid:1.2.840.114350.1.13.0.1.7.4.698084.18832",
                                            "code": "2",
                                            "display": "Anesthesiology"
                                        }
                                    ],
                                    "text": "Anesthesiology"
                                },
                                "url": "http://open.epic.com/FHIR/StructureDefinition/extension/specialty"
                            }
                        ],
                        "type": [
                            {
                                "coding": [
                                    {
                                        "system": "urn:oid:1.2.840.114350.1.13.0.1.7.10.698084.18869",
                                        "code": "Anesthesiolo",
                                        "display": "Anesthesiologist"
                                    }
                                ],
                                "text": "Anesthesiologist"
                            }
                        ],
                        "period": {
                            "start": "2024-07-12T22:58:30Z"
                        },
                        "individual": {
                            "reference": "Practitioner/enHmcmrIOygs4mq-t6soebQ3",
                            "type": "Practitioner",
                            "display": "Anesthesiologist Anesthesia, MD"
                        }
                    }
                ],
                "period": {
                    "start": "2024-07-12T19:30:00Z",
                    "end": "2024-07-13T01:05:00Z"
                },
                "reasonCode": [
                    {
                        "coding": [
                            {
                                "system": "http://snomed.info/sct",
                                "code": "37796009",
                                "display": "Migraine (disorder)"
                            }
                        ],
                        "text": "Headache, migraine"
                    }
                ],
                "diagnosis": [
                    {
                        "condition": {
                            "reference": "Condition/e-v0rw8HJuNWZagdtW3nvew3",
                            "display": "Generalized headaches"
                        }
                    }
                ],
                "account": [
                    {
                        "identifier": {
                            "system": "urn:oid:1.2.840.114350.1.13.0.1.7.2.726582",
                            "value": "2697"
                        },
                        "display": "HARE,HEIDI OPTIME"
                    }
                ],
                "hospitalization": {
                    "extension": [
                        {
                            "valueDateTime": "2024-07-12T19:30:00Z",
                            "url": "http://open.epic.com/FHIR/StructureDefinition/extension/ip-admit-datetime"
                        }
                    ],
                    "admitSource": {
                        "coding": [
                            {
                                "system": "urn:oid:1.2.840.114350.1.13.0.1.7.10.698084.10310",
                                "code": "1",
                                "display": "Non-Healthcare Facility"
                            }
                        ],
                        "text": "Non-Healthcare Facility"
                    },
                    "dischargeDisposition": {
                        "coding": [
                            {
                                "system": "urn:oid:1.2.840.114350.1.13.0.1.7.10.698084.18888",
                                "code": "1",
                                "display": "Home or Self Care"
                            }
                        ],
                        "text": "Home or Self Care"
                    }
                },
                "location": [
                    {
                        "location": {
                            "reference": "Location/eZLHPE-Nzb5bWJhhb-M820hOpBX3gdn5tmWzBGuiRSwA3",
                            "display": "EPH Intensive Care"
                        },
                        "period": {
                            "start": "2024-07-12T19:30:00Z",
                            "end": "2024-07-12T23:06:00Z"
                        }
                    },
                    {
                        "location": {
                            "reference": "Location/eHeR2B2gdVSvTnVj1hBDiZYsgc-X0LxWezfOe.ofOWm03",
                            "display": "EPH Main Operating Room"
                        },
                        "period": {
                            "start": "2024-07-12T23:06:00Z",
                            "end": "2024-07-13T01:05:00Z"
                        }
                    },
                    {
                        "location": {
                            "reference": "Location/eHeR2B2gdVSvTnVj1hBDiZYsgc-X0LxWezfOe.ofOWm03",
                            "display": "EPH Main Operating Room"
                        }
                    },
                    {
                        "location": {
                            "reference": "Location/eQSOrLdbVrMRc68KBcTBG4A3",
                            "display": "Epic Hospital System"
                        }
                    },
                    {
                        "location": {
                            "reference": "Location/en0oEv2BUMPd3.8QWzhJ8Mg3",
                            "display": "OR"
                        },
                        "physicalType": {
                            "coding": [
                                {
                                    "system": "http://terminology.hl7.org/CodeSystem/location-physical-type",
                                    "code": "ro",
                                    "display": "Room"
                                }
                            ],
                            "text": "Room"
                        }
                    },
                    {
                        "location": {
                            "identifier": {
                                "system": "urn:oid:1.2.840.114350.1.13.0.1.7.2.666968",
                                "value": "1270"
                            },
                            "display": "Ped OR"
                        },
                        "physicalType": {
                            "coding": [
                                {
                                    "system": "http://terminology.hl7.org/CodeSystem/location-physical-type",
                                    "code": "bd",
                                    "display": "Bed"
                                }
                            ],
                            "text": "Bed"
                        }
                    }
                ]
            },
            "search": {
                "mode": "include"
            }
        }
    ]
}