{
    "resourceType": "Bundle",
    "type": "searchset",
    "total": 17,
    "link": [
        {
            "relation": "self",
            "url": "https://appmarket.epic.com/interconnect-amcurprd-oauth/api/FHIR/R4/Encounter?_include=Encounter:condition&_include=Encounter:episodeOfCare&_include=Encounter:partOf&_include=Encounter:subject&_format=json&patient=eFoaVpaKDo-e-jCeBGFvhrg3"
        }
    ],
    "entry": [
        {
            "link": [
                {
                    "relation": "self",
                    "url": "https://appmarket.epic.com/interconnect-amcurprd-oauth/api/FHIR/R4/Encounter/efpj7F6eBW222mgKLJk1TTQ3"
                }
            ],
            "fullUrl": "https://appmarket.epic.com/interconnect-amcurprd-oauth/api/FHIR/R4/Encounter/efpj7F6eBW222mgKLJk1TTQ3",
            "resource": {
                "resourceType": "Encounter",
                "id": "efpj7F6eBW222mgKLJk1TTQ3",
                "identifier": [
                    {
                        "use": "usual",
                        "system": "urn:oid:1.2.840.114350.1.13.0.1.7.3.698084.8",
                        "value": "35064"
                    }
                ],
                "status": "in-progress",
                "class": {
                    "system": "urn:oid:1.2.840.114350.1.72.1.7.7.10.696784.13260",
                    "code": "13",
                    "display": "Support OP Encounter"
                },
                "type": [
                    {
                        "coding": [
                            {
                                "system": "urn:oid:1.2.840.114350.1.13.0.1.7.10.698084.30",
                                "code": "101",
                                "display": "Office Visit"
                            }
                        ],
                        "text": "Office Visit"
                    }
                ],
                "subject": {
                    "reference": "Patient/eFoaVpaKDo-e-jCeBGFvhrg3",
                    "display": "Kidney, Kathryn B"
                },
                "episodeOfCare": [
                    {
                        "reference": "EpisodeOfCare/e6UBCzDee5Por5n5VZCooEA3",
                        "type": "EpisodeOfCare",
                        "display": "Kidney Transplant \u2013 4/11/2006  (#1)"
                    }
                ],
                "period": {
                    "start": "2021-07-20",
                    "end": "2021-07-20"
                },
                "location": [
                    {
                        "location": {
                            "reference": "Location/e9zmTFYbRlvNwfsvTidSDSv.qlLJ3KHlDzoV643sQzAU3",
                            "display": "EMC Transplant"
                        }
                    }
                ]
            },
            "search": {
                "mode": "match"
            }
        },
        {
            "link": [
                {
                    "relation": "self",
                    "url": "https://appmarket.epic.com/interconnect-amcurprd-oauth/api/FHIR/R4/Encounter/e.w.UJNzmx.4IV2grReddkA3"
                }
            ],
            "fullUrl": "https://appmarket.epic.com/interconnect-amcurprd-oauth/api/FHIR/R4/Encounter/e.w.UJNzmx.4IV2grReddkA3",
            "resource": {
                "resourceType": "Encounter",
                "id": "e.w.UJNzmx.4IV2grReddkA3",
                "identifier": [
                    {
                        "use": "usual",
                        "system": "urn:oid:1.2.840.114350.1.13.0.1.7.3.698084.8",
                        "value": "9574"
                    }
                ],
                "status": "finished",
                "class": {
                    "system": "urn:oid:1.2.840.114350.1.72.1.7.7.10.696784.13260",
                    "code": "13",
                    "display": "Support OP Encounter"
                },
                "type": [
                    {
                        "coding": [
                            {
                                "system": "urn:oid:1.2.840.114350.1.13.0.1.7.10.698084.30",
                                "code": "150",
                                "display": "Abstract"
                            }
                        ],
                        "text": "Abstract"
                    }
                ],
                "subject": {
                    "reference": "Patient/eFoaVpaKDo-e-jCeBGFvhrg3",
                    "display": "Kidney, Kathryn B"
                },
                "episodeOfCare": [
                    {
                        "reference": "EpisodeOfCare/e6UBCzDee5Por5n5VZCooEA3",
                        "type": "EpisodeOfCare",
                        "display": "Kidney Transplant \u2013 4/11/2006  (#1)"
                    }
                ],
                "period": {
                    "start": "2013-11-12",
                    "end": "2013-11-12"
                },
                "location": [
                    {
                        "location": {
                            "reference": "Location/e.zUbzUZH9WErlJkdM0-hMZY7Z6JkVK.ftghaWm0ZCLs3",
                            "display": "EMH Abdominal Transplant"
                        }
                    }
                ]
            },
            "search": {
                "mode": "match"
            }
        },
        {
            "link": [
                {
                    "relation": "self",
                    "url": "https://appmarket.epic.com/interconnect-amcurprd-oauth/api/FHIR/R4/Encounter/eA5wL9l73u-gLnQGfF.-ioQ3"
                }
            ],
            "fullUrl": "https://appmarket.epic.com/interconnect-amcurprd-oauth/api/FHIR/R4/Encounter/eA5wL9l73u-gLnQGfF.-ioQ3",
            "resource": {
                "resourceType": "Encounter",
                "id": "eA5wL9l73u-gLnQGfF.-ioQ3",
                "identifier": [
                    {
                        "use": "usual",
                        "system": "urn:oid:1.2.840.114350.1.13.0.1.7.3.698084.8",
                        "value": "9575"
                    }
                ],
                "status": "finished",
                "class": {
                    "system": "urn:oid:1.2.840.114350.1.72.1.7.7.10.696784.13260",
                    "code": "13",
                    "display": "Support OP Encounter"
                },
                "type": [
                    {
                        "coding": [
                            {
                                "system": "urn:oid:1.2.840.114350.1.13.0.1.7.10.698084.30",
                                "code": "111",
                                "display": "Orders Only"
                            }
                        ],
                        "text": "Orders Only"
                    }
                ],
                "subject": {
                    "reference": "Patient/eFoaVpaKDo-e-jCeBGFvhrg3",
                    "display": "Kidney, Kathryn B"
                },
                "period": {
                    "start": "2013-10-03",
                    "end": "2013-10-03"
                },
                "location": [
                    {
                        "location": {
                            "reference": "Location/e.zUbzUZH9WErlJkdM0-hMZY7Z6JkVK.ftghaWm0ZCLs3",
                            "display": "EMH Abdominal Transplant"
                        }
                    }
                ]
            },
            "search": {
                "mode": "match"
            }
        },
        {
            "link": [
                {
                    "relation": "self",
                    "url": "https://appmarket.epic.com/interconnect-amcurprd-oauth/api/FHIR/R4/Encounter/e-HfRYgcoHjh5-WQIAwD.gg3"
                }
            ],
            "fullUrl": "https://appmarket.epic.com/interconnect-amcurprd-oauth/api/FHIR/R4/Encounter/e-HfRYgcoHjh5-WQIAwD.gg3",
            "resource": {
                "resourceType": "Encounter",
                "id": "e-HfRYgcoHjh5-WQIAwD.gg3",
                "identifier": [
                    {
                        "use": "usual",
                        "system": "urn:oid:1.2.840.114350.1.13.0.1.7.3.698084.8",
                        "value": "9577"
                    }
                ],
                "status": "in-progress",
                "class": {
                    "system": "urn:oid:1.2.840.114350.1.72.1.7.7.10.696784.13260",
                    "code": "13",
                    "display": "Support OP Encounter"
                },
                "type": [
                    {
                        "coding": [
                            {
                                "system": "urn:oid:1.2.840.114350.1.13.0.1.7.10.698084.30",
                                "code": "150",
                                "display": "Abstract"
                            }
                        ],
                        "text": "Abstract"
                    }
                ],
                "subject": {
                    "reference": "Patient/eFoaVpaKDo-e-jCeBGFvhrg3",
                    "display": "Kidney, Kathryn B"
                },
                "episodeOfCare": [
                    {
                        "reference": "EpisodeOfCare/e6UBCzDee5Por5n5VZCooEA3",
                        "type": "EpisodeOfCare",
                        "display": "Kidney Transplant \u2013 4/11/2006  (#1)"
                    }
                ],
                "period": {
                    "start": "2013-04-11",
                    "end": "2013-04-11"
                },
                "reasonCode": [
                    {
                        "coding": [
                            {
                                "system": "urn:oid:1.2.840.114350.1.13.0.1.7.2.728286",
                                "code": "1410000002",
                                "display": "Kidney Transplant"
                            }
                        ],
                        "text": "Kidney Transplant"
                    }
                ],
                "location": [
                    {
                        "location": {
                            "reference": "Location/e.zUbzUZH9WErlJkdM0-hMZY7Z6JkVK.ftghaWm0ZCLs3",
                            "display": "EMH Abdominal Transplant"
                        }
                    }
                ]
            },
            "search": {
                "mode": "match"
            }
        },
        {
            "link": [
                {
                    "relation": "self",
                    "url": "https://appmarket.epic.com/interconnect-amcurprd-oauth/api/FHIR/R4/Encounter/eLVMH4namsT9xc73iEgLTag3"
                }
            ],
            "fullUrl": "https://appmarket.epic.com/interconnect-amcurprd-oauth/api/FHIR/R4/Encounter/eLVMH4namsT9xc73iEgLTag3",
            "resource": {
                "resourceType": "Encounter",
                "id": "eLVMH4namsT9xc73iEgLTag3",
                "identifier": [
                    {
                        "use": "usual",
                        "system": "urn:oid:1.2.840.114350.1.13.0.1.7.3.698084.8",
                        "value": "9578"
                    }
                ],
                "status": "in-progress",
                "class": {
                    "system": "urn:oid:1.2.840.114350.1.72.1.7.7.10.696784.13260",
                    "code": "13",
                    "display": "Support OP Encounter"
                },
                "type": [
                    {
                        "coding": [
                            {
                                "system": "urn:oid:1.2.840.114350.1.13.0.1.7.10.698084.30",
                                "code": "150",
                                "display": "Abstract"
                            }
                        ],
                        "text": "Abstract"
                    }
                ],
                "subject": {
                    "reference": "Patient/eFoaVpaKDo-e-jCeBGFvhrg3",
                    "display": "Kidney, Kathryn B"
                },
                "period": {
                    "start": "2013-04-11",
                    "end": "2013-04-11"
                },
                "location": [
                    {
                        "location": {
                            "reference": "Location/e4W4rmGe9QzuGm2Dy4NBqVc0KDe6yGld6HW95UuN-Qd03",
                            "display": "EMC Family Medicine"
                        }
                    }
                ]
            },
            "search": {
                "mode": "match"
            }
        },
        {
            "link": [
                {
                    "relation": "self",
                    "url": "https://appmarket.epic.com/interconnect-amcurprd-oauth/api/FHIR/R4/Encounter/eSTr5Plnh6dh5D63Mm5ArGA3"
                }
            ],
            "fullUrl": "https://appmarket.epic.com/interconnect-amcurprd-oauth/api/FHIR/R4/Encounter/eSTr5Plnh6dh5D63Mm5ArGA3",
            "resource": {
                "resourceType": "Encounter",
                "id": "eSTr5Plnh6dh5D63Mm5ArGA3",
                "identifier": [
                    {
                        "use": "usual",
                        "system": "urn:oid:1.2.840.114350.1.13.0.1.7.3.698084.8",
                        "value": "9580"
                    }
                ],
                "status": "unknown",
                "class": {
                    "system": "urn:oid:1.2.840.114350.1.72.1.7.7.10.696784.13260",
                    "code": "13",
                    "display": "Support OP Encounter"
                },
                "subject": {
                    "reference": "Patient/eFoaVpaKDo-e-jCeBGFvhrg3",
                    "display": "Kidney, Kathryn B"
                },
                "period": {
                    "start": "2012-01-12",
                    "end": "2012-01-12"
                }
            },
            "search": {
                "mode": "match"
            }
        },
        {
            "link": [
                {
                    "relation": "self",
                    "url": "https://appmarket.epic.com/interconnect-amcurprd-oauth/api/FHIR/R4/Encounter/ex9agdjhkohk2OSm2jaKxAQ3"
                }
            ],
            "fullUrl": "https://appmarket.epic.com/interconnect-amcurprd-oauth/api/FHIR/R4/Encounter/ex9agdjhkohk2OSm2jaKxAQ3",
            "resource": {
                "resourceType": "Encounter",
                "id": "ex9agdjhkohk2OSm2jaKxAQ3",
                "identifier": [
                    {
                        "use": "usual",
                        "system": "urn:oid:1.2.840.114350.1.13.0.1.7.3.698084.8",
                        "value": "9581"
                    }
                ],
                "status": "unknown",
                "class": {
                    "system": "urn:oid:1.2.840.114350.1.72.1.7.7.10.696784.13260",
                    "code": "13",
                    "display": "Support OP Encounter"
                },
                "subject": {
                    "reference": "Patient/eFoaVpaKDo-e-jCeBGFvhrg3",
                    "display": "Kidney, Kathryn B"
                },
                "period": {
                    "start": "2011-07-21",
                    "end": "2011-07-21"
                }
            },
            "search": {
                "mode": "match"
            }
        },
        {
            "link": [
                {
                    "relation": "self",
                    "url": "https://appmarket.epic.com/interconnect-amcurprd-oauth/api/FHIR/R4/Encounter/el4pVZ4DTVoCzLue9n3G3IA3"
                }
            ],
            "fullUrl": "https://appmarket.epic.com/interconnect-amcurprd-oauth/api/FHIR/R4/Encounter/el4pVZ4DTVoCzLue9n3G3IA3",
            "resource": {
                "resourceType": "Encounter",
                "id": "el4pVZ4DTVoCzLue9n3G3IA3",
                "identifier": [
                    {
                        "use": "usual",
                        "system": "urn:oid:1.2.840.114350.1.13.0.1.7.3.698084.8",
                        "value": "9582"
                    }
                ],
                "status": "unknown",
                "class": {
                    "system": "urn:oid:1.2.840.114350.1.72.1.7.7.10.696784.13260",
                    "code": "13",
                    "display": "Support OP Encounter"
                },
                "subject": {
                    "reference": "Patient/eFoaVpaKDo-e-jCeBGFvhrg3",
                    "display": "Kidney, Kathryn B"
                },
                "period": {
                    "start": "2011-07-21",
                    "end": "2011-07-21"
                }
            },
            "search": {
                "mode": "match"
            }
        },
        {
            "link": [
                {
                    "relation": "self",
                    "url": "https://appmarket.epic.com/interconnect-amcurprd-oauth/api/FHIR/R4/Encounter/eHtllnLON92WmSDSPppOWTg3"
                }
            ],
            "fullUrl": "https://appmarket.epic.com/interconnect-amcurprd-oauth/api/FHIR/R4/Encounter/eHtllnLON92WmSDSPppOWTg3",
            "resource": {
                "resourceType": "Encounter",
                "id": "eHtllnLON92WmSDSPppOWTg3",
                "identifier": [
                    {
                        "use": "usual",
                        "system": "urn:oid:1.2.840.114350.1.13.0.1.7.3.698084.8",
                        "value": "9583"
                    }
                ],
                "status": "unknown",
                "class": {
                    "system": "urn:oid:1.2.840.114350.1.72.1.7.7.10.696784.13260",
                    "code": "13",
                    "display": "Support OP Encounter"
                },
                "subject": {
                    "reference": "Patient/eFoaVpaKDo-e-jCeBGFvhrg3",
                    "display": "Kidney, Kathryn B"
                },
                "period": {
                    "start": "2011-07-21",
                    "end": "2011-07-21"
                }
            },
            "search": {
                "mode": "match"
            }
        },
        {
            "link": [
                {
                    "relation": "self",
                    "url": "https://appmarket.epic.com/interconnect-amcurprd-oauth/api/FHIR/R4/Encounter/eRxH855N-cJj7.69F9eUFQg3"
                }
            ],
            "fullUrl": "https://appmarket.epic.com/interconnect-amcurprd-oauth/api/FHIR/R4/Encounter/eRxH855N-cJj7.69F9eUFQg3",
            "resource": {
                "resourceType": "Encounter",
                "id": "eRxH855N-cJj7.69F9eUFQg3",
                "identifier": [
                    {
                        "use": "usual",
                        "system": "urn:oid:1.2.840.114350.1.13.0.1.7.3.698084.8",
                        "value": "9584"
                    }
                ],
                "status": "unknown",
                "class": {
                    "system": "urn:oid:1.2.840.114350.1.72.1.7.7.10.696784.13260",
                    "code": "13",
                    "display": "Support OP Encounter"
                },
                "subject": {
                    "reference": "Patient/eFoaVpaKDo-e-jCeBGFvhrg3",
                    "display": "Kidney, Kathryn B"
                },
                "period": {
                    "start": "2011-07-21",
                    "end": "2011-07-21"
                }
            },
            "search": {
                "mode": "match"
            }
        },
        {
            "link": [
                {
                    "relation": "self",
                    "url": "https://appmarket.epic.com/interconnect-amcurprd-oauth/api/FHIR/R4/Encounter/eEEHvIY6wSppNJFTmZT0rNA3"
                }
            ],
            "fullUrl": "https://appmarket.epic.com/interconnect-amcurprd-oauth/api/FHIR/R4/Encounter/eEEHvIY6wSppNJFTmZT0rNA3",
            "resource": {
                "resourceType": "Encounter",
                "id": "eEEHvIY6wSppNJFTmZT0rNA3",
                "identifier": [
                    {
                        "use": "usual",
                        "system": "urn:oid:1.2.840.114350.1.13.0.1.7.3.698084.8",
                        "value": "9585"
                    }
                ],
                "status": "unknown",
                "class": {
                    "system": "urn:oid:1.2.840.114350.1.72.1.7.7.10.696784.13260",
                    "code": "13",
                    "display": "Support OP Encounter"
                },
                "subject": {
                    "reference": "Patient/eFoaVpaKDo-e-jCeBGFvhrg3",
                    "display": "Kidney, Kathryn B"
                },
                "period": {
                    "start": "2011-06-21",
                    "end": "2011-06-21"
                }
            },
            "search": {
                "mode": "match"
            }
        },
        {
            "link": [
                {
                    "relation": "self",
                    "url": "https://appmarket.epic.com/interconnect-amcurprd-oauth/api/FHIR/R4/Encounter/epk70zLnf8ZYqTuT4.aBh1Q3"
                }
            ],
            "fullUrl": "https://appmarket.epic.com/interconnect-amcurprd-oauth/api/FHIR/R4/Encounter/epk70zLnf8ZYqTuT4.aBh1Q3",
            "resource": {
                "resourceType": "Encounter",
                "id": "epk70zLnf8ZYqTuT4.aBh1Q3",
                "identifier": [
                    {
                        "use": "usual",
                        "system": "urn:oid:1.2.840.114350.1.13.0.1.7.3.698084.8",
                        "value": "9586"
                    }
                ],
                "status": "unknown",
                "class": {
                    "system": "urn:oid:1.2.840.114350.1.72.1.7.7.10.696784.13260",
                    "code": "13",
                    "display": "Support OP Encounter"
                },
                "subject": {
                    "reference": "Patient/eFoaVpaKDo-e-jCeBGFvhrg3",
                    "display": "Kidney, Kathryn B"
                },
                "period": {
                    "start": "2010-12-28",
                    "end": "2010-12-28"
                }
            },
            "search": {
                "mode": "match"
            }
        },
        {
            "link": [
                {
                    "relation": "self",
                    "url": "https://appmarket.epic.com/interconnect-amcurprd-oauth/api/FHIR/R4/Encounter/eCiElzE73tqBBeDf6UldbWQ3"
                }
            ],
            "fullUrl": "https://appmarket.epic.com/interconnect-amcurprd-oauth/api/FHIR/R4/Encounter/eCiElzE73tqBBeDf6UldbWQ3",
            "resource": {
                "resourceType": "Encounter",
                "id": "eCiElzE73tqBBeDf6UldbWQ3",
                "identifier": [
                    {
                        "use": "usual",
                        "system": "urn:oid:1.2.840.114350.1.13.0.1.7.3.698084.8",
                        "value": "9587"
                    }
                ],
                "status": "unknown",
                "class": {
                    "system": "urn:oid:1.2.840.114350.1.72.1.7.7.10.696784.13260",
                    "code": "13",
                    "display": "Support OP Encounter"
                },
                "subject": {
                    "reference": "Patient/eFoaVpaKDo-e-jCeBGFvhrg3",
                    "display": "Kidney, Kathryn B"
                },
                "period": {
                    "start": "2010-12-28",
                    "end": "2010-12-28"
                }
            },
            "search": {
                "mode": "match"
            }
        },
        {
            "link": [
                {
                    "relation": "self",
                    "url": "https://appmarket.epic.com/interconnect-amcurprd-oauth/api/FHIR/R4/Encounter/eeJDXjGtkCBDZs2KiVA9-XQ3"
                }
            ],
            "fullUrl": "https://appmarket.epic.com/interconnect-amcurprd-oauth/api/FHIR/R4/Encounter/eeJDXjGtkCBDZs2KiVA9-XQ3",
            "resource": {
                "resourceType": "Encounter",
                "id": "eeJDXjGtkCBDZs2KiVA9-XQ3",
                "identifier": [
                    {
                        "use": "usual",
                        "system": "urn:oid:1.2.840.114350.1.13.0.1.7.3.698084.8",
                        "value": "9588"
                    }
                ],
                "status": "unknown",
                "class": {
                    "system": "urn:oid:1.2.840.114350.1.72.1.7.7.10.696784.13260",
                    "code": "13",
                    "display": "Support OP Encounter"
                },
                "subject": {
                    "reference": "Patient/eFoaVpaKDo-e-jCeBGFvhrg3",
                    "display": "Kidney, Kathryn B"
                },
                "period": {
                    "start": "2010-12-28",
                    "end": "2010-12-28"
                }
            },
            "search": {
                "mode": "match"
            }
        },
        {
            "link": [
                {
                    "relation": "self",
                    "url": "https://appmarket.epic.com/interconnect-amcurprd-oauth/api/FHIR/R4/Encounter/e-o8RWKxmXhyHdEpERCHftQ3"
                }
            ],
            "fullUrl": "https://appmarket.epic.com/interconnect-amcurprd-oauth/api/FHIR/R4/Encounter/e-o8RWKxmXhyHdEpERCHftQ3",
            "resource": {
                "resourceType": "Encounter",
                "id": "e-o8RWKxmXhyHdEpERCHftQ3",
                "identifier": [
                    {
                        "use": "usual",
                        "system": "urn:oid:1.2.840.114350.1.13.0.1.7.3.698084.8",
                        "value": "9589"
                    }
                ],
                "status": "unknown",
                "class": {
                    "system": "urn:oid:1.2.840.114350.1.72.1.7.7.10.696784.13260",
                    "code": "13",
                    "display": "Support OP Encounter"
                },
                "subject": {
                    "reference": "Patient/eFoaVpaKDo-e-jCeBGFvhrg3",
                    "display": "Kidney, Kathryn B"
                },
                "period": {
                    "start": "2010-12-28",
                    "end": "2010-12-28"
                }
            },
            "search": {
                "mode": "match"
            }
        },
        {
            "link": [
                {
                    "relation": "self",
                    "url": "https://appmarket.epic.com/interconnect-amcurprd-oauth/api/FHIR/R4/Encounter/ejpKcdkxGkW92Lzbet3dDMw3"
                }
            ],
            "fullUrl": "https://appmarket.epic.com/interconnect-amcurprd-oauth/api/FHIR/R4/Encounter/ejpKcdkxGkW92Lzbet3dDMw3",
            "resource": {
                "resourceType": "Encounter",
                "id": "ejpKcdkxGkW92Lzbet3dDMw3",
                "identifier": [
                    {
                        "use": "usual",
                        "system": "urn:oid:1.2.840.114350.1.13.0.1.7.3.698084.8",
                        "value": "22896"
                    }
                ],
                "status": "in-progress",
                "class": {
                    "system": "urn:oid:1.2.840.114350.1.72.1.7.7.10.696784.13260",
                    "code": "13",
                    "display": "Support OP Encounter"
                },
                "type": [
                    {
                        "coding": [
                            {
                                "system": "urn:oid:1.2.840.114350.1.13.0.1.7.10.698084.30",
                                "code": "150",
                                "display": "Abstract"
                            }
                        ],
                        "text": "Abstract"
                    }
                ],
                "subject": {
                    "reference": "Patient/eFoaVpaKDo-e-jCeBGFvhrg3",
                    "display": "Kidney, Kathryn B"
                },
                "episodeOfCare": [
                    {
                        "reference": "EpisodeOfCare/e6UBCzDee5Por5n5VZCooEA3",
                        "type": "EpisodeOfCare",
                        "display": "Kidney Transplant \u2013 4/11/2006  (#1)"
                    }
                ],
                "period": {
                    "start": "2006-04-11",
                    "end": "2006-04-11"
                },
                "location": [
                    {
                        "location": {
                            "reference": "Location/e.zUbzUZH9WErlJkdM0-hMZY7Z6JkVK.ftghaWm0ZCLs3",
                            "display": "EMH Abdominal Transplant"
                        }
                    }
                ]
            },
            "search": {
                "mode": "match"
            }
        },
        {
            "link": [
                {
                    "relation": "self",
                    "url": "https://appmarket.epic.com/interconnect-amcurprd-oauth/api/FHIR/R4/Encounter/eXGzQQUFmzx.toNwlc3wGCw3"
                }
            ],
            "fullUrl": "https://appmarket.epic.com/interconnect-amcurprd-oauth/api/FHIR/R4/Encounter/eXGzQQUFmzx.toNwlc3wGCw3",
            "resource": {
                "resourceType": "Encounter",
                "id": "eXGzQQUFmzx.toNwlc3wGCw3",
                "identifier": [
                    {
                        "use": "usual",
                        "system": "urn:oid:1.2.840.114350.1.13.0.1.7.3.698084.8",
                        "value": "22895"
                    }
                ],
                "status": "finished",
                "class": {
                    "system": "urn:oid:1.2.840.114350.1.72.1.7.7.10.696784.13260",
                    "code": "13",
                    "display": "Support OP Encounter"
                },
                "type": [
                    {
                        "coding": [
                            {
                                "system": "urn:oid:1.2.840.114350.1.13.0.1.7.10.698084.30",
                                "code": "150",
                                "display": "Abstract"
                            }
                        ],
                        "text": "Abstract"
                    }
                ],
                "subject": {
                    "reference": "Patient/eFoaVpaKDo-e-jCeBGFvhrg3",
                    "display": "Kidney, Kathryn B"
                },
                "episodeOfCare": [
                    {
                        "reference": "EpisodeOfCare/e6UBCzDee5Por5n5VZCooEA3",
                        "type": "EpisodeOfCare",
                        "display": "Kidney Transplant \u2013 4/11/2006  (#1)"
                    }
                ],
                "period": {
                    "start": "2004-04-11",
                    "end": "2004-04-11"
                },
                "location": [
                    {
                        "location": {
                            "reference": "Location/e.zUbzUZH9WErlJkdM0-hMZY7Z6JkVK.ftghaWm0ZCLs3",
                            "display": "EMH Abdominal Transplant"
                        }
                    }
                ]
            },
            "search": {
                "mode": "match"
            }
        },
        {
            "link": [
                {
                    "relation": "self",
                    "url": "https://appmarket.epic.com/interconnect-amcurprd-oauth/api/FHIR/R4/EpisodeOfCare/e6UBCzDee5Por5n5VZCooEA3"
                }
            ],
            "fullUrl": "https://appmarket.epic.com/interconnect-amcurprd-oauth/api/FHIR/R4/EpisodeOfCare/e6UBCzDee5Por5n5VZCooEA3",
            "resource": {
                "resourceType": "EpisodeOfCare",
                "id": "e6UBCzDee5Por5n5VZCooEA3",
                "extension": [
                    {
                        "valueString": "Kidney Transplant \u2013 4/11/2006  (#1)",
                        "url": "http://open.epic.com/FHIR/StructureDefinition/extension/episode-name"
                    },
                    {
                        "valueCodeableConcept": {
                            "coding": [
                                {
                                    "system": "urn:oid:1.2.840.114350.1.72.1.7.7.10.728366.30035",
                                    "code": "2",
                                    "display": "Recipient"
                                }
                            ],
                            "text": "Recipient"
                        },
                        "url": "http://open.epic.com/FHIR/StructureDefinition/extension/transplant-donor-or-recipient"
                    },
                    {
                        "extension": [
                            {
                                "valueCodeableConcept": {
                                    "coding": [
                                        {
                                            "system": "urn:oid:1.2.840.114350.1.72.1.7.7.10.728366.30030",
                                            "code": "16",
                                            "display": "Kidney"
                                        }
                                    ],
                                    "text": "Kidney"
                                },
                                "url": "organ-class"
                            },
                            {
                                "valueReference": {
                                    "reference": "Practitioner/e4fBRdwCD6bWDI76z9Bn9WA3",
                                    "type": "Practitioner",
                                    "display": "Coordinator Phoenix, RN"
                                },
                                "url": "coordinator"
                            }
                        ],
                        "url": "http://open.epic.com/FHIR/StructureDefinition/extension/transplant-organ-coordinator"
                    },
                    {
                        "extension": [
                            {
                                "valueCodeableConcept": {
                                    "coding": [
                                        {
                                            "system": "urn:oid:1.2.840.114350.1.72.1.7.7.10.728366.30105",
                                            "code": "50",
                                            "display": "Transplanted"
                                        }
                                    ],
                                    "text": "Transplanted"
                                },
                                "url": "phase"
                            },
                            {
                                "valueString": "Active Follow-up",
                                "url": "status"
                            },
                            {
                                "valueDate": "2013-04-11",
                                "url": "effective"
                            }
                        ],
                        "url": "http://open.epic.com/FHIR/StructureDefinition/extension/transplant-phase-status"
                    },
                    {
                        "valueDate": "2006-04-11",
                        "url": "http://open.epic.com/FHIR/StructureDefinition/extension/transplant-event-transplanted-date"
                    },
                    {
                        "valueString": "University of Wisconsin Hospital and Clinics (Madison, WI)",
                        "url": "http://open.epic.com/FHIR/StructureDefinition/extension/transplant-center"
                    },
                    {
                        "valueReference": {
                            "reference": "BodyStructure/e2n-DgUv99jTW-piHgC5DpcWSWGtXKV.QBlWjcUfCa.GE2XmK.5rFpWnQ9yMoCCze3",
                            "type": "BodyStructure",
                            "display": "Right Kidney"
                        },
                        "url": "http://open.epic.com/FHIR/StructureDefinition/extension/transplant-organ"
                    }
                ],
                "status": "active",
                "type": [
                    {
                        "coding": [
                            {
                                "system": "urn:oid:1.2.840.114350.1.13.0.1.7.2.726668",
                                "code": "49",
                                "display": "Transplant"
                            },
                            {
                                "system": "urn:oid:1.2.840.114350.1.13.0.1.7.4.726668.130",
                                "code": "4",
                                "display": "Transplant"
                            }
                        ],
                        "text": "Transplant"
                    }
                ],
                "diagnosis": [
                    {
                        "condition": {
                            "reference": "Condition/exbyKFH7T9rByD0moOcObng3",
                            "type": "Condition",
                            "display": "Kidney Transplant Rejection Grade 1"
                        }
                    },
                    {
                        "condition": {
                            "reference": "Condition/eJHJmIoDD9qV.MJH31X0X3A3",
                            "type": "Condition",
                            "display": "Kidney Transplant Rejection Grade 1"
                        }
                    },
                    {
                        "condition": {
                            "reference": "Condition/e5H1gjr8IGPDiA8lE.Vp05w3",
                            "type": "Condition",
                            "display": "Kidney Transplant Rejection- recurrance orginal disease"
                        }
                    },
                    {
                        "condition": {
                            "reference": "Condition/es6xigbzJrxvcgBtTDwk1TA3",
                            "type": "Condition",
                            "display": "End-stage renal disease (CMS/HCC)"
                        }
                    },
                    {
                        "condition": {
                            "reference": "Condition/eQTpXgXbckDpEHx86gjyZuA3",
                            "type": "Condition",
                            "display": "Mitral insufficiency (Resolved)"
                        }
                    },
                    {
                        "condition": {
                            "reference": "Condition/eb.V.M4-r6uDJHY-iAruaXA3",
                            "type": "Condition",
                            "display": "Hypophosphatemia (Resolved)"
                        }
                    },
                    {
                        "condition": {
                            "reference": "Condition/ekagNtvksTp7ZgFlpeXQwjg3",
                            "type": "Condition",
                            "display": "Lymphocele (Resolved)"
                        }
                    },
                    {
                        "condition": {
                            "reference": "Condition/eXYvhemAU2J3nTohEIH9FOA3",
                            "type": "Condition",
                            "display": "Ileus (CMS/HCC) (Resolved)"
                        }
                    },
                    {
                        "condition": {
                            "reference": "Condition/eHZOjNECNXC31vMQiCeNN5Q3",
                            "type": "Condition",
                            "display": "Lymphocele (Resolved)"
                        }
                    }
                ],
                "patient": {
                    "reference": "Patient/eFoaVpaKDo-e-jCeBGFvhrg3",
                    "type": "Patient",
                    "display": "Kidney, Kathryn B"
                },
                "period": {
                    "start": "2013-04-11"
                },
                "team": [
                    {
                        "reference": "CareTeam/eO-jVFBDSTi7gHktgi8adtZXUre5876n2E6.LUhXU1xI3",
                        "type": "CareTeam"
                    }
                ]
            },
            "search": {
                "mode": "include"
            }
        },
        {
            "link": [
                {
                    "relation": "self",
                    "url": "https://appmarket.epic.com/interconnect-amcurprd-oauth/api/FHIR/R4/Patient/eFoaVpaKDo-e-jCeBGFvhrg3"
                }
            ],
            "fullUrl": "https://appmarket.epic.com/interconnect-amcurprd-oauth/api/FHIR/R4/Patient/eFoaVpaKDo-e-jCeBGFvhrg3",
            "resource": {
                "resourceType": "Patient",
                "id": "eFoaVpaKDo-e-jCeBGFvhrg3",
                "extension": [
                    {
                        "extension": [
                            {
                                "valueCoding": {
                                    "system": "urn:oid:2.16.840.1.113883.6.238",
                                    "code": "2131-1",
                                    "display": "Other Race"
                                },
                                "url": "detailed"
                            },
                            {
                                "valueString": "Other",
                                "url": "text"
                            }
                        ],
                        "url": "http://hl7.org/fhir/us/core/StructureDefinition/us-core-race"
                    },
                    {
                        "extension": [
                            {
                                "valueCoding": {
                                    "system": "urn:oid:2.16.840.1.113883.6.238",
                                    "code": "2135-2",
                                    "display": "Hispanic or Latino"
                                },
                                "url": "ombCategory"
                            },
                            {
                                "valueString": "Hispanic or Latino",
                                "url": "text"
                            }
                        ],
                        "url": "http://hl7.org/fhir/us/core/StructureDefinition/us-core-ethnicity"
                    },
                    {
                        "valueCodeableConcept": {
                            "coding": [
                                {
                                    "system": "urn:oid:1.2.840.114350.1.13.0.1.7.10.698084.130.657370.19999000",
                                    "code": "female",
                                    "display": "female"
                                }
                            ]
                        },
                        "url": "http://open.epic.com/FHIR/StructureDefinition/extension/legal-sex"
                    },
                    {
                        "valueCodeableConcept": {
                            "coding": [
                                {
                                    "system": "urn:oid:1.2.840.114350.1.13.0.1.7.10.698084.130.657370.19999000",
                                    "code": "female",
                                    "display": "female"
                                }
                            ]
                        },
                        "url": "http://open.epic.com/FHIR/StructureDefinition/extension/sex-for-clinical-use"
                    },
                    {
                        "valueCode": "F",
                        "url": "http://hl7.org/fhir/us/core/StructureDefinition/us-core-birthsex"
                    }
                ],
                "identifier": [
                    {
                        "use": "usual",
                        "system": "urn:oid:2.16.840.1.113883.4.1",
                        "value": "772-31-3506"
                    },
                    {
                        "use": "usual",
                        "type": {
                            "text": "CEID"
                        },
                        "system": "urn:epic:apporchard.curprod",
                        "value": "AO1KDQN3745N77F"
                    },
                    {
                        "use": "usual",
                        "type": {
                            "text": "EPIC"
                        },
                        "system": "urn:oid:1.2.840.114350.1.1",
                        "value": "E3118"
                    },
                    {
                        "use": "usual",
                        "type": {
                            "text": "EXTERNAL"
                        },
                        "system": "urn:oid:1.2.840.114350.1.13.0.1.7.2.698084",
                        "value": "Z5038"
                    },
                    {
                        "use": "usual",
                        "type": {
                            "text": "FHIR"
                        },
                        "system": "http://open.epic.com/FHIR/StructureDefinition/patient-dstu2-fhir-id",
                        "value": "TxtJn52-StYwIF85QELkIw8R8h2Rsw79kZ0n-juZHsOsB"
                    },
                    {
                        "use": "usual",
                        "type": {
                            "text": "FHIR STU3"
                        },
                        "system": "http://open.epic.com/FHIR/StructureDefinition/patient-fhir-id",
                        "value": "eFoaVpaKDo-e-jCeBGFvhrg3"
                    },
                    {
                        "use": "usual",
                        "type": {
                            "text": "INTERNAL"
                        },
                        "system": "urn:oid:1.2.840.114350.1.13.0.1.7.2.698084",
                        "value": "     Z5038"
                    },
                    {
                        "use": "usual",
                        "type": {
                            "text": "MRN"
                        },
                        "system": "urn:oid:1.2.840.114350.1.13.0.1.7.5.737384.14",
                        "value": "202868"
                    },
                    {
                        "use": "usual",
                        "system": "https://open.epic.com/FHIR/StructureDefinition/PayerMemberId",
                        "value": "928364231"
                    }
                ],
                "active": true,
                "name": [
                    {
                        "use": "official",
                        "text": "Kathryn B Kidney",
                        "family": "Kidney",
                        "given": [
                            "Kathryn",
                            "B"
                        ]
                    },
                    {
                        "use": "usual",
                        "text": "Kathryn B Kidney",
                        "family": "Kidney",
                        "given": [
                            "Kathryn",
                            "B"
                        ]
                    }
                ],
                "gender": "female",
                "birthDate": "1966-04-11",
                "deceasedBoolean": false,
                "address": [
                    {
                        "use": "old",
                        "line": [
                            "123 Glen Oaks"
                        ],
                        "city": "Madison",
                        "state": "WI",
                        "postalCode": "53711",
                        "country": "US"
                    },
                    {
                        "use": "home",
                        "line": [
                            "123 Glen Oaks"
                        ],
                        "city": "Madison",
                        "state": "WI",
                        "postalCode": "53711",
                        "country": "US"
                    }
                ],
                "maritalStatus": {
                    "text": "Married"
                },
                "contact": [
                    {
                        "relationship": [
                            {
                                "coding": [
                                    {
                                        "system": "http://terminology.hl7.org/CodeSystem/v2-0131",
                                        "code": "E",
                                        "display": "Employer"
                                    }
                                ]
                            }
                        ],
                        "organization": {
                            "display": "Other"
                        }
                    }
                ],
                "communication": [
                    {
                        "language": {
                            "coding": [
                                {
                                    "system": "urn:ietf:bcp:47",
                                    "code": "es",
                                    "display": "Spanish"
                                }
                            ],
                            "text": "Spanish"
                        },
                        "preferred": true
                    }
                ],
                "managingOrganization": {
                    "reference": "Organization/enRyWnSP963FYDpoks4NHOA3",
                    "display": "Epic Hospital System"
                }
            },
            "search": {
                "mode": "include"
            }
        }
    ]
}