{
    "resourceType": "Bundle",
    "type": "searchset",
    "total": 2,
    "link": [
        {
            "relation": "self",
            "url": "https://appmarket.epic.com/interconnect-amcurprd-oauth/api/FHIR/R4/Encounter?_include=Encounter:condition&_include=Encounter:episodeOfCare&_include=Encounter:partOf&_include=Encounter:subject&_format=json&patient=eQStMZPZjGGx.vsp7nQcE5A3"
        }
    ],
    "entry": [
        {
            "link": [
                {
                    "relation": "self",
                    "url": "https://appmarket.epic.com/interconnect-amcurprd-oauth/api/FHIR/R4/Encounter/ednXr.--jAAlnQj6rU5-cVg3"
                }
            ],
            "fullUrl": "https://appmarket.epic.com/interconnect-amcurprd-oauth/api/FHIR/R4/Encounter/ednXr.--jAAlnQj6rU5-cVg3",
            "resource": {
                "resourceType": "Encounter",
                "id": "ednXr.--jAAlnQj6rU5-cVg3",
                "identifier": [
                    {
                        "use": "usual",
                        "system": "urn:oid:1.2.840.114350.1.13.0.1.7.3.698084.8",
                        "value": "35065"
                    }
                ],
                "status": "in-progress",
                "class": {
                    "system": "urn:oid:1.2.840.114350.1.72.1.7.7.10.696784.13260",
                    "code": "13",
                    "display": "Support OP Encounter"
                },
                "type": [
                    {
                        "coding": [
                            {
                                "system": "urn:oid:1.2.840.114350.1.13.0.1.7.10.698084.30",
                                "code": "101",
                                "display": "Office Visit"
                            }
                        ],
                        "text": "Office Visit"
                    }
                ],
                "subject": {
                    "reference": "Patient/eQStMZPZjGGx.vsp7nQcE5A3",
                    "display": "Kidney, Kelly A"
                },
                "episodeOfCare": [
                    {
                        "reference": "EpisodeOfCare/emOCCRZwsL0LLVprsT23yTA3",
                        "type": "EpisodeOfCare",
                        "display": "Kidney Transplant Referral - 11/15/2013"
                    }
                ],
                "participant": [
                    {
                        "individual": {
                            "reference": "Practitioner/eM5CWtq15N0WJeuCet5bJlQ3",
                            "type": "Practitioner",
                            "display": "Physician Family Medicine, MD"
                        }
                    }
                ],
                "period": {
                    "start": "2021-07-20",
                    "end": "2021-07-20"
                },
                "location": [
                    {
                        "location": {
                            "reference": "Location/e9zmTFYbRlvNwfsvTidSDSv.qlLJ3KHlDzoV643sQzAU3",
                            "display": "EMC Transplant"
                        }
                    }
                ]
            },
            "search": {
                "mode": "match"
            }
        },
        {
            "link": [
                {
                    "relation": "self",
                    "url": "https://appmarket.epic.com/interconnect-amcurprd-oauth/api/FHIR/R4/Encounter/eLSLZ.hDG31Df-vwSI-Pa2A3"
                }
            ],
            "fullUrl": "https://appmarket.epic.com/interconnect-amcurprd-oauth/api/FHIR/R4/Encounter/eLSLZ.hDG31Df-vwSI-Pa2A3",
            "resource": {
                "resourceType": "Encounter",
                "id": "eLSLZ.hDG31Df-vwSI-Pa2A3",
                "identifier": [
                    {
                        "use": "usual",
                        "system": "urn:oid:1.2.840.114350.1.13.0.1.7.3.698084.8",
                        "value": "7555"
                    }
                ],
                "status": "finished",
                "class": {
                    "system": "urn:oid:1.2.840.114350.1.72.1.7.7.10.696784.13260",
                    "code": "13",
                    "display": "Support OP Encounter"
                },
                "type": [
                    {
                        "coding": [
                            {
                                "system": "urn:oid:1.2.840.114350.1.13.0.1.7.10.698084.30",
                                "code": "150",
                                "display": "Abstract"
                            }
                        ],
                        "text": "Abstract"
                    }
                ],
                "subject": {
                    "reference": "Patient/eQStMZPZjGGx.vsp7nQcE5A3",
                    "display": "Kidney, Kelly A"
                },
                "episodeOfCare": [
                    {
                        "reference": "EpisodeOfCare/emOCCRZwsL0LLVprsT23yTA3",
                        "type": "EpisodeOfCare",
                        "display": "Kidney Transplant Referral - 11/15/2013"
                    }
                ],
                "participant": [
                    {
                        "individual": {
                            "reference": "Practitioner/eM5CWtq15N0WJeuCet5bJlQ3",
                            "type": "Practitioner",
                            "display": "Physician Family Medicine, MD"
                        }
                    }
                ],
                "period": {
                    "start": "2013-11-15",
                    "end": "2013-11-15"
                },
                "location": [
                    {
                        "location": {
                            "reference": "Location/e.zUbzUZH9WErlJkdM0-hMZY7Z6JkVK.ftghaWm0ZCLs3",
                            "display": "EMH Abdominal Transplant"
                        }
                    }
                ]
            },
            "search": {
                "mode": "match"
            }
        },
        {
            "link": [
                {
                    "relation": "self",
                    "url": "https://appmarket.epic.com/interconnect-amcurprd-oauth/api/FHIR/R4/Patient/eQStMZPZjGGx.vsp7nQcE5A3"
                }
            ],
            "fullUrl": "https://appmarket.epic.com/interconnect-amcurprd-oauth/api/FHIR/R4/Patient/eQStMZPZjGGx.vsp7nQcE5A3",
            "resource": {
                "resourceType": "Patient",
                "id": "eQStMZPZjGGx.vsp7nQcE5A3",
                "extension": [
                    {
                        "extension": [
                            {
                                "valueCoding": {
                                    "system": "urn:oid:2.16.840.1.113883.6.238",
                                    "code": "2106-3",
                                    "display": "White"
                                },
                                "url": "ombCategory"
                            },
                            {
                                "valueString": "White",
                                "url": "text"
                            }
                        ],
                        "url": "http://hl7.org/fhir/us/core/StructureDefinition/us-core-race"
                    },
                    {
                        "extension": [
                            {
                                "valueCoding": {
                                    "system": "urn:oid:2.16.840.1.113883.6.238",
                                    "code": "2186-5",
                                    "display": "Not Hispanic or Latino"
                                },
                                "url": "ombCategory"
                            },
                            {
                                "valueString": "Not Hispanic or Latino",
                                "url": "text"
                            }
                        ],
                        "url": "http://hl7.org/fhir/us/core/StructureDefinition/us-core-ethnicity"
                    },
                    {
                        "valueCodeableConcept": {
                            "coding": [
                                {
                                    "system": "urn:oid:1.2.840.114350.1.13.0.1.7.10.698084.130.657370.19999000",
                                    "code": "female",
                                    "display": "female"
                                }
                            ]
                        },
                        "url": "http://open.epic.com/FHIR/StructureDefinition/extension/legal-sex"
                    },
                    {
                        "valueCodeableConcept": {
                            "coding": [
                                {
                                    "system": "urn:oid:1.2.840.114350.1.13.0.1.7.10.698084.130.657370.19999000",
                                    "code": "female",
                                    "display": "female"
                                }
                            ]
                        },
                        "url": "http://open.epic.com/FHIR/StructureDefinition/extension/sex-for-clinical-use"
                    },
                    {
                        "valueCode": "F",
                        "url": "http://hl7.org/fhir/us/core/StructureDefinition/us-core-birthsex"
                    }
                ],
                "identifier": [
                    {
                        "use": "usual",
                        "system": "urn:oid:2.16.840.1.113883.4.1",
                        "value": "551-80-2085"
                    },
                    {
                        "use": "usual",
                        "type": {
                            "text": "CEID"
                        },
                        "system": "urn:epic:apporchard.curprod",
                        "value": "AO1VWS40NVNGT52"
                    },
                    {
                        "use": "usual",
                        "type": {
                            "text": "EPIC"
                        },
                        "system": "urn:oid:1.2.840.114350.1.1",
                        "value": "E3331"
                    },
                    {
                        "use": "usual",
                        "type": {
                            "text": "EXTERNAL"
                        },
                        "system": "urn:oid:1.2.840.114350.1.13.0.1.7.2.698084",
                        "value": "Z4983"
                    },
                    {
                        "use": "usual",
                        "type": {
                            "text": "FHIR"
                        },
                        "system": "http://open.epic.com/FHIR/StructureDefinition/patient-dstu2-fhir-id",
                        "value": "T-qsY.VZVeU8NdDmW1oOqPb59nLG2PtWQvT4qdwTSpQkB"
                    },
                    {
                        "use": "usual",
                        "type": {
                            "text": "FHIR STU3"
                        },
                        "system": "http://open.epic.com/FHIR/StructureDefinition/patient-fhir-id",
                        "value": "eQStMZPZjGGx.vsp7nQcE5A3"
                    },
                    {
                        "use": "usual",
                        "type": {
                            "text": "INTERNAL"
                        },
                        "system": "urn:oid:1.2.840.114350.1.13.0.1.7.2.698084",
                        "value": "     Z4983"
                    },
                    {
                        "use": "usual",
                        "type": {
                            "text": "MRN"
                        },
                        "system": "urn:oid:1.2.840.114350.1.13.0.1.7.5.737384.14",
                        "value": "203081"
                    },
                    {
                        "use": "usual",
                        "type": {
                            "text": "MYCHARTLOGIN"
                        },
                        "system": "urn:oid:1.2.840.114350.1.13.0.1.7.3.878082.110",
                        "value": "KIDNEYKELLYA"
                    },
                    {
                        "use": "usual",
                        "type": {
                            "text": "WPRINTERNAL"
                        },
                        "system": "urn:oid:1.2.840.114350.1.13.0.1.7.2.878082",
                        "value": "298"
                    },
                    {
                        "use": "usual",
                        "system": "https://open.epic.com/FHIR/StructureDefinition/PayerMemberId",
                        "value": "239842838"
                    }
                ],
                "active": true,
                "name": [
                    {
                        "use": "official",
                        "text": "Kelly A Kidney",
                        "family": "Kidney",
                        "given": [
                            "Kelly",
                            "A"
                        ]
                    },
                    {
                        "use": "usual",
                        "text": "Kelly A Kidney",
                        "family": "Kidney",
                        "given": [
                            "Kelly",
                            "A"
                        ]
                    }
                ],
                "telecom": [
                    {
                        "system": "phone",
                        "value": "608-555-6666",
                        "use": "home"
                    }
                ],
                "gender": "female",
                "birthDate": "1960-11-14",
                "deceasedBoolean": false,
                "address": [
                    {
                        "use": "old",
                        "line": [
                            "456 Allen St."
                        ],
                        "city": "Madison",
                        "district": "DANE",
                        "state": "WI",
                        "postalCode": "53726",
                        "country": "US"
                    },
                    {
                        "use": "home",
                        "line": [
                            "456 Allen St."
                        ],
                        "city": "Madison",
                        "district": "DANE",
                        "state": "WI",
                        "postalCode": "53726",
                        "country": "US"
                    }
                ],
                "maritalStatus": {
                    "text": "Married"
                },
                "contact": [
                    {
                        "relationship": [
                            {
                                "coding": [
                                    {
                                        "system": "http://terminology.hl7.org/CodeSystem/v2-0131",
                                        "code": "C",
                                        "display": "Emergency Contact"
                                    },
                                    {
                                        "system": "urn:oid:1.2.840.114350.1.13.0.1.7.4.827665.1000",
                                        "code": "17",
                                        "display": "Spouse"
                                    }
                                ],
                                "text": "Spouse"
                            }
                        ],
                        "name": {
                            "use": "usual",
                            "text": "Kidney,Kurt"
                        },
                        "telecom": [
                            {
                                "system": "phone",
                                "value": "608-555-6666",
                                "use": "home"
                            }
                        ]
                    }
                ],
                "communication": [
                    {
                        "language": {
                            "coding": [
                                {
                                    "system": "urn:ietf:bcp:47",
                                    "code": "en",
                                    "display": "English"
                                }
                            ],
                            "text": "English"
                        },
                        "preferred": true
                    }
                ],
                "generalPractitioner": [
                    {
                        "reference": "Practitioner/eM5CWtq15N0WJeuCet5bJlQ3",
                        "type": "Practitioner",
                        "display": "Physician Family Medicine, MD"
                    }
                ],
                "managingOrganization": {
                    "reference": "Organization/enRyWnSP963FYDpoks4NHOA3",
                    "display": "Epic Hospital System"
                }
            },
            "search": {
                "mode": "include"
            }
        },
        {
            "link": [
                {
                    "relation": "self",
                    "url": "https://appmarket.epic.com/interconnect-amcurprd-oauth/api/FHIR/R4/EpisodeOfCare/emOCCRZwsL0LLVprsT23yTA3"
                }
            ],
            "fullUrl": "https://appmarket.epic.com/interconnect-amcurprd-oauth/api/FHIR/R4/EpisodeOfCare/emOCCRZwsL0LLVprsT23yTA3",
            "resource": {
                "resourceType": "EpisodeOfCare",
                "id": "emOCCRZwsL0LLVprsT23yTA3",
                "extension": [
                    {
                        "valueString": "Kidney Transplant Referral - 11/15/2013",
                        "url": "http://open.epic.com/FHIR/StructureDefinition/extension/episode-name"
                    },
                    {
                        "valueCodeableConcept": {
                            "coding": [
                                {
                                    "system": "urn:oid:1.2.840.114350.1.72.1.7.7.10.728366.30035",
                                    "code": "2",
                                    "display": "Recipient"
                                }
                            ],
                            "text": "Recipient"
                        },
                        "url": "http://open.epic.com/FHIR/StructureDefinition/extension/transplant-donor-or-recipient"
                    },
                    {
                        "extension": [
                            {
                                "valueCodeableConcept": {
                                    "coding": [
                                        {
                                            "system": "urn:oid:1.2.840.114350.1.72.1.7.7.10.728366.30030",
                                            "code": "16",
                                            "display": "Kidney"
                                        }
                                    ],
                                    "text": "Kidney"
                                },
                                "url": "organ-class"
                            },
                            {
                                "valueReference": {
                                    "reference": "Practitioner/e4fBRdwCD6bWDI76z9Bn9WA3",
                                    "type": "Practitioner",
                                    "display": "Coordinator Phoenix, RN"
                                },
                                "url": "coordinator"
                            }
                        ],
                        "url": "http://open.epic.com/FHIR/StructureDefinition/extension/transplant-organ-coordinator"
                    },
                    {
                        "extension": [
                            {
                                "valueCodeableConcept": {
                                    "coding": [
                                        {
                                            "system": "urn:oid:1.2.840.114350.1.72.1.7.7.10.728366.30105",
                                            "code": "10",
                                            "display": "Referral"
                                        }
                                    ],
                                    "text": "Referral"
                                },
                                "url": "phase"
                            },
                            {
                                "valueString": "Active",
                                "url": "status"
                            },
                            {
                                "valueString": "Scheduled for Evaluation",
                                "url": "reason"
                            },
                            {
                                "valueDate": "2022-01-10",
                                "url": "effective"
                            }
                        ],
                        "url": "http://open.epic.com/FHIR/StructureDefinition/extension/transplant-phase-status"
                    },
                    {
                        "valueDate": "2013-11-15",
                        "url": "http://open.epic.com/FHIR/StructureDefinition/extension/transplant-event-referral-date"
                    },
                    {
                        "valueString": "University of Wisconsin Hospital and Clinics (Madison, WI)",
                        "url": "http://open.epic.com/FHIR/StructureDefinition/extension/transplant-center"
                    }
                ],
                "status": "active",
                "type": [
                    {
                        "coding": [
                            {
                                "system": "urn:oid:1.2.840.114350.1.13.0.1.7.2.726668",
                                "code": "49",
                                "display": "Transplant"
                            },
                            {
                                "system": "urn:oid:1.2.840.114350.1.13.0.1.7.4.726668.130",
                                "code": "4",
                                "display": "Transplant"
                            }
                        ],
                        "text": "Transplant"
                    }
                ],
                "diagnosis": [
                    {
                        "condition": {
                            "reference": "Condition/eBiNxO3Z7j0nWCgj8KElkEg3",
                            "type": "Condition",
                            "display": "ESRD (end stage renal disease) (CMS/HCC)"
                        }
                    },
                    {
                        "condition": {
                            "reference": "Condition/eT.Vn8fOqLj.kGSBQbFB6XQ3",
                            "type": "Condition",
                            "display": "CKD (chronic kidney disease)"
                        }
                    },
                    {
                        "condition": {
                            "reference": "Condition/eRBomES5W.vzz6mOEhRysUQ3",
                            "type": "Condition",
                            "display": "Vasculitis (Resolved)"
                        }
                    },
                    {
                        "condition": {
                            "reference": "Condition/eCu5AkZTIFX19Q5YyztnJZA3",
                            "type": "Condition",
                            "display": "RPGN (rapidly progressive glomerulonephritis)"
                        }
                    }
                ],
                "patient": {
                    "reference": "Patient/eQStMZPZjGGx.vsp7nQcE5A3",
                    "type": "Patient",
                    "display": "Kidney, Kelly A"
                },
                "period": {
                    "start": "2013-11-15"
                },
                "team": [
                    {
                        "reference": "CareTeam/erg0c107ZdS8S2xBfjM93j5SwHGMSwxLpmRPb2bxjQew3",
                        "type": "CareTeam"
                    }
                ]
            },
            "search": {
                "mode": "include"
            }
        }
    ]
}