{
    "resourceType": "Bundle",
    "type": "searchset",
    "total": 42,
    "link": [
        {
            "relation": "self",
            "url": "https://appmarket.epic.com/interconnect-amcurprd-oauth/api/FHIR/R4/Encounter?_include=Encounter:condition&_include=Encounter:episodeOfCare&_include=Encounter:partOf&_include=Encounter:subject&_format=json&patient=e1ldMGqAW6j.-jS7UUb0ZqA3"
        }
    ],
    "entry": [
        {
            "link": [
                {
                    "relation": "self",
                    "url": "https://appmarket.epic.com/interconnect-amcurprd-oauth/api/FHIR/R4/Encounter/eWZ8PTjJezm8G0gVw3wvlCw3"
                }
            ],
            "fullUrl": "https://appmarket.epic.com/interconnect-amcurprd-oauth/api/FHIR/R4/Encounter/eWZ8PTjJezm8G0gVw3wvlCw3",
            "resource": {
                "resourceType": "Encounter",
                "id": "eWZ8PTjJezm8G0gVw3wvlCw3",
                "identifier": [
                    {
                        "use": "usual",
                        "system": "urn:oid:1.2.840.114350.1.13.0.1.7.3.698084.8",
                        "value": "34271"
                    }
                ],
                "status": "finished",
                "class": {
                    "system": "urn:oid:1.2.840.114350.1.72.1.7.7.10.696784.13260",
                    "code": "13",
                    "display": "Support OP Encounter"
                },
                "type": [
                    {
                        "coding": [
                            {
                                "system": "urn:oid:1.2.840.114350.1.13.0.1.7.10.698084.30",
                                "code": "111",
                                "display": "Orders Only"
                            }
                        ],
                        "text": "Orders Only"
                    }
                ],
                "subject": {
                    "reference": "Patient/e1ldMGqAW6j.-jS7UUb0ZqA3",
                    "display": "Zzfsmaster, Marcus"
                },
                "participant": [
                    {
                        "individual": {
                            "reference": "Practitioner/eM5CWtq15N0WJeuCet5bJlQ3",
                            "type": "Practitioner",
                            "display": "Physician Family Medicine, MD"
                        }
                    },
                    {
                        "individual": {
                            "reference": "Practitioner/e1E.doJCNaLCFW6.bPf-vTw3",
                            "type": "Practitioner",
                            "display": "Physician Cardiothoracic Surgery, MD"
                        }
                    },
                    {
                        "individual": {
                            "reference": "Practitioner/e8q8nmCu5ehjRF8JYikiOmA3",
                            "type": "Practitioner",
                            "display": "Cardiologist Cupid, MD"
                        }
                    }
                ],
                "period": {
                    "start": "2020-10-28",
                    "end": "2020-10-28"
                },
                "location": [
                    {
                        "location": {
                            "reference": "Location/e4W4rmGe9QzuGm2Dy4NBqVc0KDe6yGld6HW95UuN-Qd03",
                            "display": "EMC Family Medicine"
                        }
                    }
                ]
            },
            "search": {
                "mode": "match"
            }
        },
        {
            "link": [
                {
                    "relation": "self",
                    "url": "https://appmarket.epic.com/interconnect-amcurprd-oauth/api/FHIR/R4/Encounter/e6uk0i1VS4hQkY27Bdrakqw3"
                }
            ],
            "fullUrl": "https://appmarket.epic.com/interconnect-amcurprd-oauth/api/FHIR/R4/Encounter/e6uk0i1VS4hQkY27Bdrakqw3",
            "resource": {
                "resourceType": "Encounter",
                "id": "e6uk0i1VS4hQkY27Bdrakqw3",
                "identifier": [
                    {
                        "use": "usual",
                        "system": "urn:oid:1.2.840.114350.1.13.0.1.7.3.698084.8",
                        "value": "20650"
                    }
                ],
                "status": "in-progress",
                "class": {
                    "system": "urn:oid:1.2.840.114350.1.72.1.7.7.10.696784.13260",
                    "code": "13",
                    "display": "Support OP Encounter"
                },
                "type": [
                    {
                        "coding": [
                            {
                                "system": "urn:oid:1.2.840.114350.1.13.0.1.7.10.698084.30",
                                "code": "107",
                                "display": "Refill"
                            }
                        ],
                        "text": "Refill"
                    }
                ],
                "subject": {
                    "reference": "Patient/e1ldMGqAW6j.-jS7UUb0ZqA3",
                    "display": "Zzfsmaster, Marcus"
                },
                "participant": [
                    {
                        "individual": {
                            "reference": "Practitioner/eM5CWtq15N0WJeuCet5bJlQ3",
                            "type": "Practitioner",
                            "display": "Physician Family Medicine, MD"
                        }
                    }
                ],
                "period": {
                    "start": "2013-06-28",
                    "end": "2013-06-28"
                },
                "reasonCode": [
                    {
                        "coding": [
                            {
                                "system": "urn:oid:1.2.840.114350.1.13.0.1.7.2.728286",
                                "code": "160383",
                                "display": "Med Refill"
                            }
                        ],
                        "text": "Med Refill"
                    }
                ],
                "location": [
                    {
                        "location": {
                            "reference": "Location/edMTlFfH6NJ009KzsRtLjgZyfcYBTM5Zu1eEO2ZKijsg3",
                            "display": "EMC Cardiology"
                        }
                    }
                ]
            },
            "search": {
                "mode": "match"
            }
        },
        {
            "link": [
                {
                    "relation": "self",
                    "url": "https://appmarket.epic.com/interconnect-amcurprd-oauth/api/FHIR/R4/Encounter/ecTZCSCCN1Ri--TL-a8HL1Q3"
                }
            ],
            "fullUrl": "https://appmarket.epic.com/interconnect-amcurprd-oauth/api/FHIR/R4/Encounter/ecTZCSCCN1Ri--TL-a8HL1Q3",
            "resource": {
                "resourceType": "Encounter",
                "id": "ecTZCSCCN1Ri--TL-a8HL1Q3",
                "identifier": [
                    {
                        "use": "usual",
                        "system": "urn:oid:1.2.840.114350.1.13.0.1.7.3.698084.8",
                        "value": "20652"
                    }
                ],
                "status": "unknown",
                "class": {
                    "system": "urn:oid:1.2.840.114350.1.72.1.7.7.10.696784.13260",
                    "code": "10",
                    "display": "Surgery Log"
                },
                "type": [
                    {
                        "coding": [
                            {
                                "system": "urn:oid:1.2.840.114350.1.13.0.1.7.10.698084.30",
                                "code": "51",
                                "display": "Surgery"
                            }
                        ],
                        "text": "Surgery"
                    }
                ],
                "subject": {
                    "reference": "Patient/e1ldMGqAW6j.-jS7UUb0ZqA3",
                    "display": "Zzfsmaster, Marcus"
                },
                "participant": [
                    {
                        "type": [
                            {
                                "coding": [
                                    {
                                        "system": "http://hl7.org/fhir/v3/ParticipationType",
                                        "code": "REF",
                                        "display": "referrer"
                                    }
                                ],
                                "text": "referrer"
                            }
                        ],
                        "individual": {
                            "reference": "Practitioner/eM5CWtq15N0WJeuCet5bJlQ3",
                            "type": "Practitioner",
                            "display": "Physician Family Medicine, MD"
                        }
                    },
                    {
                        "individual": {
                            "reference": "Practitioner/eM5CWtq15N0WJeuCet5bJlQ3",
                            "type": "Practitioner",
                            "display": "Physician Family Medicine, MD"
                        }
                    }
                ],
                "period": {
                    "start": "2013-06-12T13:10:00Z",
                    "end": "2013-06-12T14:40:00Z"
                },
                "location": [
                    {
                        "location": {
                            "reference": "Location/e0RxOmkXIU6AFKYRdkia09vtUDDWeFFNKjE8KHhJcJJ83",
                            "display": "EMH Cardiac Cath Labs"
                        }
                    }
                ],
                "partOf": {
                    "reference": "Encounter/eWmOl.1tLyNEFIX8yLm-Ysw3",
                    "identifier": {
                        "use": "usual",
                        "system": "urn:oid:1.2.840.114350.1.13.0.1.7.3.698084.8",
                        "value": "20656"
                    },
                    "display": "Hospital Encounter"
                }
            },
            "search": {
                "mode": "match"
            }
        },
        {
            "link": [
                {
                    "relation": "self",
                    "url": "https://appmarket.epic.com/interconnect-amcurprd-oauth/api/FHIR/R4/Encounter/eBjxk8vhzlf62RMPbNqF45Q3"
                }
            ],
            "fullUrl": "https://appmarket.epic.com/interconnect-amcurprd-oauth/api/FHIR/R4/Encounter/eBjxk8vhzlf62RMPbNqF45Q3",
            "resource": {
                "resourceType": "Encounter",
                "id": "eBjxk8vhzlf62RMPbNqF45Q3",
                "identifier": [
                    {
                        "use": "usual",
                        "system": "urn:oid:1.2.840.114350.1.13.0.1.7.3.698084.8",
                        "value": "20653"
                    }
                ],
                "status": "finished",
                "class": {
                    "system": "urn:oid:1.2.840.114350.1.72.1.7.7.10.696784.13260",
                    "code": "13",
                    "display": "Support OP Encounter"
                },
                "type": [
                    {
                        "coding": [
                            {
                                "system": "urn:oid:1.2.840.114350.1.13.0.1.7.10.698084.30",
                                "code": "111",
                                "display": "Orders Only"
                            }
                        ],
                        "text": "Orders Only"
                    }
                ],
                "subject": {
                    "reference": "Patient/e1ldMGqAW6j.-jS7UUb0ZqA3",
                    "display": "Zzfsmaster, Marcus"
                },
                "participant": [
                    {
                        "individual": {
                            "reference": "Practitioner/eM5CWtq15N0WJeuCet5bJlQ3",
                            "type": "Practitioner",
                            "display": "Physician Family Medicine, MD"
                        }
                    }
                ],
                "period": {
                    "start": "2013-06-12",
                    "end": "2013-06-12"
                },
                "location": [
                    {
                        "location": {
                            "reference": "Location/edMTlFfH6NJ009KzsRtLjgZyfcYBTM5Zu1eEO2ZKijsg3",
                            "display": "EMC Cardiology"
                        }
                    }
                ]
            },
            "search": {
                "mode": "match"
            }
        },
        {
            "link": [
                {
                    "relation": "self",
                    "url": "https://appmarket.epic.com/interconnect-amcurprd-oauth/api/FHIR/R4/Encounter/e4xwFS8BhvS2TF03J2H5BAQ3"
                }
            ],
            "fullUrl": "https://appmarket.epic.com/interconnect-amcurprd-oauth/api/FHIR/R4/Encounter/e4xwFS8BhvS2TF03J2H5BAQ3",
            "resource": {
                "resourceType": "Encounter",
                "id": "e4xwFS8BhvS2TF03J2H5BAQ3",
                "identifier": [
                    {
                        "use": "usual",
                        "system": "urn:oid:1.2.840.114350.1.13.0.1.7.3.698084.8",
                        "value": "20654"
                    }
                ],
                "status": "arrived",
                "class": {
                    "system": "urn:oid:1.2.840.114350.1.72.1.7.7.10.696784.13260",
                    "code": "5",
                    "display": "Appointment"
                },
                "type": [
                    {
                        "coding": [
                            {
                                "system": "urn:oid:1.2.840.114350.1.13.0.1.7.2.808267",
                                "code": "10008",
                                "display": "Echocardiogram"
                            }
                        ],
                        "text": "Echocardiogram"
                    }
                ],
                "subject": {
                    "reference": "Patient/e1ldMGqAW6j.-jS7UUb0ZqA3",
                    "display": "Zzfsmaster, Marcus"
                },
                "participant": [
                    {
                        "period": {
                            "start": "2013-06-12T17:30:00Z",
                            "end": "2013-06-12T18:00:00Z"
                        },
                        "individual": {
                            "reference": "Practitioner/e8q8nmCu5ehjRF8JYikiOmA3",
                            "display": "Cardiologist Cupid, MD"
                        }
                    },
                    {
                        "period": {
                            "start": "2013-06-12T17:30:00Z",
                            "end": "2013-06-12T18:00:00Z"
                        },
                        "individual": {
                            "display": "EMH CARDIAC ECHO"
                        }
                    }
                ],
                "period": {
                    "start": "2013-06-12T17:30:00Z",
                    "end": "2013-06-12T18:00:00Z"
                },
                "location": [
                    {
                        "location": {
                            "reference": "Location/edMTlFfH6NJ009KzsRtLjgZyfcYBTM5Zu1eEO2ZKijsg3",
                            "display": "EMC Cardiology"
                        }
                    }
                ]
            },
            "search": {
                "mode": "match"
            }
        },
        {
            "link": [
                {
                    "relation": "self",
                    "url": "https://appmarket.epic.com/interconnect-amcurprd-oauth/api/FHIR/R4/Encounter/ekjONj4FGyMXWgz2lVRmwUQ3"
                }
            ],
            "fullUrl": "https://appmarket.epic.com/interconnect-amcurprd-oauth/api/FHIR/R4/Encounter/ekjONj4FGyMXWgz2lVRmwUQ3",
            "resource": {
                "resourceType": "Encounter",
                "id": "ekjONj4FGyMXWgz2lVRmwUQ3",
                "identifier": [
                    {
                        "use": "usual",
                        "system": "urn:oid:1.2.840.114350.1.13.0.1.7.3.698084.8",
                        "value": "20655"
                    }
                ],
                "status": "in-progress",
                "class": {
                    "system": "urn:oid:1.2.840.114350.1.72.1.7.7.10.696784.13260",
                    "code": "13",
                    "display": "Support OP Encounter"
                },
                "type": [
                    {
                        "coding": [
                            {
                                "system": "urn:oid:1.2.840.114350.1.13.0.1.7.10.698084.30",
                                "code": "117",
                                "display": "Ancillary Orders"
                            }
                        ],
                        "text": "Ancillary Orders"
                    }
                ],
                "subject": {
                    "reference": "Patient/e1ldMGqAW6j.-jS7UUb0ZqA3",
                    "display": "Zzfsmaster, Marcus"
                },
                "participant": [
                    {
                        "individual": {
                            "reference": "Practitioner/eM5CWtq15N0WJeuCet5bJlQ3",
                            "type": "Practitioner",
                            "display": "Physician Family Medicine, MD"
                        }
                    }
                ],
                "period": {
                    "start": "2013-06-12",
                    "end": "2013-06-12"
                },
                "location": [
                    {
                        "location": {
                            "reference": "Location/edMTlFfH6NJ009KzsRtLjgZyfcYBTM5Zu1eEO2ZKijsg3",
                            "display": "EMC Cardiology"
                        }
                    }
                ]
            },
            "search": {
                "mode": "match"
            }
        },
        {
            "link": [
                {
                    "relation": "self",
                    "url": "https://appmarket.epic.com/interconnect-amcurprd-oauth/api/FHIR/R4/Encounter/eWmOl.1tLyNEFIX8yLm-Ysw3"
                }
            ],
            "fullUrl": "https://appmarket.epic.com/interconnect-amcurprd-oauth/api/FHIR/R4/Encounter/eWmOl.1tLyNEFIX8yLm-Ysw3",
            "resource": {
                "resourceType": "Encounter",
                "id": "eWmOl.1tLyNEFIX8yLm-Ysw3",
                "identifier": [
                    {
                        "use": "usual",
                        "system": "urn:oid:1.2.840.114350.1.13.0.1.7.3.698084.8",
                        "value": "20656"
                    }
                ],
                "status": "planned",
                "class": {
                    "system": "urn:oid:1.2.840.114350.1.72.1.7.7.10.696784.13260",
                    "code": "3",
                    "display": "Admission"
                },
                "type": [
                    {
                        "coding": [
                            {
                                "system": "urn:oid:1.2.840.114350.1.13.0.1.7.10.698084.10110",
                                "code": "102",
                                "display": "Outpatient"
                            }
                        ],
                        "text": "Outpatient"
                    },
                    {
                        "coding": [
                            {
                                "system": "urn:oid:1.2.840.114350.1.13.0.1.7.10.698084.30",
                                "code": "3",
                                "display": "Hospital Encounter"
                            }
                        ],
                        "text": "Hospital Encounter"
                    }
                ],
                "subject": {
                    "reference": "Patient/e1ldMGqAW6j.-jS7UUb0ZqA3",
                    "display": "Zzfsmaster, Marcus"
                },
                "participant": [
                    {
                        "type": [
                            {
                                "coding": [
                                    {
                                        "system": "http://hl7.org/fhir/v3/ParticipationType",
                                        "code": "ATND",
                                        "display": "attender"
                                    }
                                ],
                                "text": "attender"
                            }
                        ],
                        "individual": {
                            "reference": "Practitioner/ele-ZY2xBro7pcU3Cfkn66Q3",
                            "type": "Practitioner",
                            "display": "Invasive Cardiologist Cupid, MD"
                        }
                    }
                ],
                "period": {
                    "start": "2013-06-12T13:10:00Z",
                    "end": "2173-09-27T14:10:00Z"
                },
                "location": [
                    {
                        "location": {
                            "reference": "Location/edMTlFfH6NJ009KzsRtLjgZyfcYBTM5Zu1eEO2ZKijsg3",
                            "display": "EMC Cardiology"
                        }
                    },
                    {
                        "location": {
                            "reference": "Location/edMTlFfH6NJ009KzsRtLjgZyfcYBTM5Zu1eEO2ZKijsg3",
                            "display": "EMC Cardiology"
                        }
                    },
                    {
                        "location": {
                            "reference": "Location/eQSOrLdbVrMRc68KBcTBG4A3",
                            "display": "Epic Hospital System"
                        }
                    }
                ]
            },
            "search": {
                "mode": "match"
            }
        },
        {
            "link": [
                {
                    "relation": "self",
                    "url": "https://appmarket.epic.com/interconnect-amcurprd-oauth/api/FHIR/R4/Encounter/eUad7cJSC9twDlCxmvhEMGA3"
                }
            ],
            "fullUrl": "https://appmarket.epic.com/interconnect-amcurprd-oauth/api/FHIR/R4/Encounter/eUad7cJSC9twDlCxmvhEMGA3",
            "resource": {
                "resourceType": "Encounter",
                "id": "eUad7cJSC9twDlCxmvhEMGA3",
                "identifier": [
                    {
                        "use": "usual",
                        "system": "urn:oid:1.2.840.114350.1.13.0.1.7.3.698084.8",
                        "value": "20657"
                    }
                ],
                "status": "arrived",
                "class": {
                    "system": "urn:oid:1.2.840.114350.1.72.1.7.7.10.696784.13260",
                    "code": "5",
                    "display": "Appointment"
                },
                "type": [
                    {
                        "coding": [
                            {
                                "system": "urn:oid:1.2.840.114350.1.13.0.1.7.10.698084.30",
                                "code": "50",
                                "display": "Appointment"
                            }
                        ],
                        "text": "Appointment"
                    },
                    {
                        "coding": [
                            {
                                "system": "urn:oid:1.2.840.114350.1.13.0.1.7.2.808267",
                                "code": "10008",
                                "display": "Echocardiogram"
                            }
                        ],
                        "text": "Echocardiogram"
                    }
                ],
                "subject": {
                    "reference": "Patient/e1ldMGqAW6j.-jS7UUb0ZqA3",
                    "display": "Zzfsmaster, Marcus"
                },
                "participant": [
                    {
                        "period": {
                            "start": "2012-09-29T19:40:00Z",
                            "end": "2012-09-29T20:40:00Z"
                        },
                        "individual": {
                            "display": "EMH CARDIAC ECHO"
                        }
                    }
                ],
                "period": {
                    "start": "2012-09-29T19:40:00Z",
                    "end": "2012-09-29T20:40:00Z"
                },
                "location": [
                    {
                        "location": {
                            "reference": "Location/edMTlFfH6NJ009KzsRtLjgZyfcYBTM5Zu1eEO2ZKijsg3",
                            "display": "EMC Cardiology"
                        }
                    }
                ]
            },
            "search": {
                "mode": "match"
            }
        },
        {
            "link": [
                {
                    "relation": "self",
                    "url": "https://appmarket.epic.com/interconnect-amcurprd-oauth/api/FHIR/R4/Encounter/eKJyQryYPla7OX7mBTtKC4g3"
                }
            ],
            "fullUrl": "https://appmarket.epic.com/interconnect-amcurprd-oauth/api/FHIR/R4/Encounter/eKJyQryYPla7OX7mBTtKC4g3",
            "resource": {
                "resourceType": "Encounter",
                "id": "eKJyQryYPla7OX7mBTtKC4g3",
                "identifier": [
                    {
                        "use": "usual",
                        "system": "urn:oid:1.2.840.114350.1.13.0.1.7.3.698084.8",
                        "value": "20659"
                    }
                ],
                "status": "finished",
                "class": {
                    "system": "urn:oid:1.2.840.114350.1.72.1.7.7.10.696784.13260",
                    "code": "6",
                    "display": "Discharge"
                },
                "type": [
                    {
                        "coding": [
                            {
                                "system": "urn:oid:1.2.840.114350.1.13.0.1.7.10.698084.30",
                                "code": "3",
                                "display": "Hospital Encounter"
                            }
                        ],
                        "text": "Hospital Encounter"
                    }
                ],
                "subject": {
                    "reference": "Patient/e1ldMGqAW6j.-jS7UUb0ZqA3",
                    "display": "Zzfsmaster, Marcus"
                },
                "participant": [
                    {
                        "type": [
                            {
                                "coding": [
                                    {
                                        "system": "http://hl7.org/fhir/v3/ParticipationType",
                                        "code": "ADM",
                                        "display": "admitter"
                                    }
                                ],
                                "text": "admitter"
                            }
                        ],
                        "individual": {
                            "reference": "Practitioner/ele-ZY2xBro7pcU3Cfkn66Q3",
                            "type": "Practitioner",
                            "display": "Invasive Cardiologist Cupid, MD"
                        }
                    },
                    {
                        "type": [
                            {
                                "coding": [
                                    {
                                        "system": "http://hl7.org/fhir/v3/ParticipationType",
                                        "code": "DIS",
                                        "display": "discharger"
                                    }
                                ],
                                "text": "discharger"
                            }
                        ],
                        "individual": {
                            "reference": "Practitioner/ele-ZY2xBro7pcU3Cfkn66Q3",
                            "type": "Practitioner",
                            "display": "Invasive Cardiologist Cupid, MD"
                        }
                    },
                    {
                        "type": [
                            {
                                "coding": [
                                    {
                                        "system": "http://hl7.org/fhir/v3/ParticipationType",
                                        "code": "ATND",
                                        "display": "attender"
                                    }
                                ],
                                "text": "attender"
                            }
                        ],
                        "period": {
                            "start": "2012-04-13T02:40:37Z"
                        },
                        "individual": {
                            "reference": "Practitioner/ele-ZY2xBro7pcU3Cfkn66Q3",
                            "type": "Practitioner",
                            "display": "Invasive Cardiologist Cupid, MD"
                        }
                    }
                ],
                "period": {
                    "start": "2012-04-13T02:40:37Z",
                    "end": "2012-04-13T04:06:00Z"
                },
                "reasonCode": [
                    {
                        "coding": [
                            {
                                "system": "http://snomed.info/sct",
                                "code": "42343007",
                                "display": "Congestive heart failure (disorder)"
                            }
                        ],
                        "text": "CHF (congestive heart failure) (CMS/HCC)"
                    }
                ],
                "account": [
                    {
                        "identifier": {
                            "system": "urn:oid:1.2.840.114350.1.13.0.1.7.2.726582",
                            "value": "1440"
                        },
                        "display": "ZZFSMASTER,MARCUS"
                    }
                ],
                "hospitalization": {
                    "extension": [
                        {
                            "valueDateTime": "2012-04-13T02:40:37Z",
                            "url": "http://open.epic.com/FHIR/StructureDefinition/extension/ip-admit-datetime"
                        }
                    ]
                },
                "location": [
                    {
                        "location": {
                            "reference": "Location/eO-3e71xq6A5Xp7leBMrw5X-8sAl6UHIF91p7maQKFdU3",
                            "display": "EMH Medical Surgical"
                        },
                        "period": {
                            "start": "2012-04-13T02:40:00Z",
                            "end": "2012-04-13T04:06:00Z"
                        }
                    },
                    {
                        "location": {
                            "reference": "Location/eO-3e71xq6A5Xp7leBMrw5X-8sAl6UHIF91p7maQKFdU3",
                            "display": "EMH Medical Surgical"
                        }
                    },
                    {
                        "location": {
                            "reference": "Location/eQSOrLdbVrMRc68KBcTBG4A3",
                            "display": "Epic Hospital System"
                        }
                    },
                    {
                        "location": {
                            "reference": "Location/enl3EX83V9ZLkC38zOz.G5w3",
                            "display": "CARD EP"
                        },
                        "physicalType": {
                            "coding": [
                                {
                                    "system": "http://terminology.hl7.org/CodeSystem/location-physical-type",
                                    "code": "ro",
                                    "display": "Room"
                                }
                            ],
                            "text": "Room"
                        }
                    },
                    {
                        "location": {
                            "identifier": {
                                "system": "urn:oid:1.2.840.114350.1.13.0.1.7.2.666968",
                                "value": "434"
                            }
                        },
                        "physicalType": {
                            "coding": [
                                {
                                    "system": "http://terminology.hl7.org/CodeSystem/location-physical-type",
                                    "code": "bd",
                                    "display": "Bed"
                                }
                            ],
                            "text": "Bed"
                        }
                    }
                ]
            },
            "search": {
                "mode": "match"
            }
        },
        {
            "link": [
                {
                    "relation": "self",
                    "url": "https://appmarket.epic.com/interconnect-amcurprd-oauth/api/FHIR/R4/Encounter/ei5Av6SuzwQfDsqx4M4B5sw3"
                }
            ],
            "fullUrl": "https://appmarket.epic.com/interconnect-amcurprd-oauth/api/FHIR/R4/Encounter/ei5Av6SuzwQfDsqx4M4B5sw3",
            "resource": {
                "resourceType": "Encounter",
                "id": "ei5Av6SuzwQfDsqx4M4B5sw3",
                "identifier": [
                    {
                        "use": "usual",
                        "system": "urn:oid:1.2.840.114350.1.13.0.1.7.3.698084.8",
                        "value": "20660"
                    }
                ],
                "status": "arrived",
                "class": {
                    "system": "urn:oid:1.2.840.114350.1.72.1.7.7.10.696784.13260",
                    "code": "5",
                    "display": "Appointment"
                },
                "type": [
                    {
                        "coding": [
                            {
                                "system": "urn:oid:1.2.840.114350.1.13.0.1.7.10.698084.30",
                                "code": "101",
                                "display": "Office Visit"
                            }
                        ],
                        "text": "Office Visit"
                    },
                    {
                        "coding": [
                            {
                                "system": "urn:oid:1.2.840.114350.1.13.0.1.7.2.808267",
                                "code": "1004",
                                "display": "Office Visit"
                            }
                        ],
                        "text": "Office Visit"
                    }
                ],
                "subject": {
                    "reference": "Patient/e1ldMGqAW6j.-jS7UUb0ZqA3",
                    "display": "Zzfsmaster, Marcus"
                },
                "participant": [
                    {
                        "type": [
                            {
                                "coding": [
                                    {
                                        "system": "http://hl7.org/fhir/v3/ParticipationType",
                                        "code": "REF",
                                        "display": "referrer"
                                    }
                                ],
                                "text": "referrer"
                            }
                        ],
                        "individual": {
                            "reference": "Practitioner/eM5CWtq15N0WJeuCet5bJlQ3",
                            "type": "Practitioner",
                            "display": "Physician Family Medicine, MD"
                        }
                    },
                    {
                        "period": {
                            "start": "2012-04-12T21:00:00Z",
                            "end": "2012-04-12T21:15:00Z"
                        },
                        "individual": {
                            "reference": "Practitioner/e1E.doJCNaLCFW6.bPf-vTw3",
                            "display": "Physician Cardiothoracic Surgery, MD"
                        }
                    }
                ],
                "period": {
                    "start": "2012-04-12T21:00:00Z",
                    "end": "2012-04-12T21:15:00Z"
                },
                "reasonCode": [
                    {
                        "coding": [
                            {
                                "system": "urn:oid:1.2.840.114350.1.13.0.1.7.2.728286",
                                "code": "127",
                                "display": "Congestive Heart Failure"
                            }
                        ],
                        "text": "Congestive Heart Failure"
                    }
                ],
                "location": [
                    {
                        "location": {
                            "reference": "Location/edMTlFfH6NJ009KzsRtLjgZyfcYBTM5Zu1eEO2ZKijsg3",
                            "display": "EMC Cardiology"
                        }
                    }
                ]
            },
            "search": {
                "mode": "match"
            }
        },
        {
            "link": [
                {
                    "relation": "self",
                    "url": "https://appmarket.epic.com/interconnect-amcurprd-oauth/api/FHIR/R4/Encounter/ePY3JRcvJbjX6Bb3w0XALXA3"
                }
            ],
            "fullUrl": "https://appmarket.epic.com/interconnect-amcurprd-oauth/api/FHIR/R4/Encounter/ePY3JRcvJbjX6Bb3w0XALXA3",
            "resource": {
                "resourceType": "Encounter",
                "id": "ePY3JRcvJbjX6Bb3w0XALXA3",
                "identifier": [
                    {
                        "use": "usual",
                        "system": "urn:oid:1.2.840.114350.1.13.0.1.7.3.698084.8",
                        "value": "20662"
                    }
                ],
                "status": "finished",
                "class": {
                    "system": "urn:oid:1.2.840.114350.1.72.1.7.7.10.696784.13260",
                    "code": "13",
                    "display": "Support OP Encounter"
                },
                "type": [
                    {
                        "coding": [
                            {
                                "system": "urn:oid:1.2.840.114350.1.13.0.1.7.10.698084.30",
                                "code": "111",
                                "display": "Orders Only"
                            }
                        ],
                        "text": "Orders Only"
                    }
                ],
                "subject": {
                    "reference": "Patient/e1ldMGqAW6j.-jS7UUb0ZqA3",
                    "display": "Zzfsmaster, Marcus"
                },
                "participant": [
                    {
                        "individual": {
                            "reference": "Practitioner/eM5CWtq15N0WJeuCet5bJlQ3",
                            "type": "Practitioner",
                            "display": "Physician Family Medicine, MD"
                        }
                    }
                ],
                "period": {
                    "start": "2011-04-19",
                    "end": "2011-04-19"
                },
                "location": [
                    {
                        "location": {
                            "reference": "Location/eO-3e71xq6A5Xp7leBMrw5X-8sAl6UHIF91p7maQKFdU3",
                            "display": "EMH Medical Surgical"
                        }
                    }
                ]
            },
            "search": {
                "mode": "match"
            }
        },
        {
            "link": [
                {
                    "relation": "self",
                    "url": "https://appmarket.epic.com/interconnect-amcurprd-oauth/api/FHIR/R4/Encounter/et4kM0ryxyRVfhgYr1qey8g3"
                }
            ],
            "fullUrl": "https://appmarket.epic.com/interconnect-amcurprd-oauth/api/FHIR/R4/Encounter/et4kM0ryxyRVfhgYr1qey8g3",
            "resource": {
                "resourceType": "Encounter",
                "id": "et4kM0ryxyRVfhgYr1qey8g3",
                "identifier": [
                    {
                        "use": "usual",
                        "system": "urn:oid:1.2.840.114350.1.13.0.1.7.3.698084.8",
                        "value": "20667"
                    }
                ],
                "status": "in-progress",
                "class": {
                    "system": "urn:oid:1.2.840.114350.1.72.1.7.7.10.696784.13260",
                    "code": "13",
                    "display": "Support OP Encounter"
                },
                "type": [
                    {
                        "coding": [
                            {
                                "system": "urn:oid:1.2.840.114350.1.13.0.1.7.10.698084.30",
                                "code": "101",
                                "display": "Office Visit"
                            }
                        ],
                        "text": "Office Visit"
                    }
                ],
                "subject": {
                    "reference": "Patient/e1ldMGqAW6j.-jS7UUb0ZqA3",
                    "display": "Zzfsmaster, Marcus"
                },
                "participant": [
                    {
                        "type": [
                            {
                                "text": "losAuthorizingPhysician"
                            }
                        ],
                        "individual": {
                            "reference": "Practitioner/eM5CWtq15N0WJeuCet5bJlQ3",
                            "type": "Practitioner",
                            "display": "Physician Family Medicine, MD"
                        }
                    }
                ],
                "period": {
                    "start": "2009-09-13",
                    "end": "2009-09-13"
                },
                "reasonCode": [
                    {
                        "coding": [
                            {
                                "system": "urn:oid:1.2.840.114350.1.13.0.1.7.2.728286",
                                "code": "83",
                                "display": "Annual Exam"
                            }
                        ],
                        "text": "Annual Exam"
                    },
                    {
                        "coding": [
                            {
                                "system": "urn:oid:1.2.840.114350.1.13.0.1.7.2.728286",
                                "code": "110033",
                                "display": "Follow-up"
                            }
                        ],
                        "text": "Follow-up"
                    }
                ],
                "location": [
                    {
                        "location": {
                            "reference": "Location/ec0JG-sOCrCrV3Y9589n3MLfDNrmaSgRNsC3-r38zobs3",
                            "display": "EMC Family Medicine West"
                        }
                    }
                ]
            },
            "search": {
                "mode": "match"
            }
        },
        {
            "link": [
                {
                    "relation": "self",
                    "url": "https://appmarket.epic.com/interconnect-amcurprd-oauth/api/FHIR/R4/Encounter/e-IYxbKQ8HqVlcgGe48qqDw3"
                }
            ],
            "fullUrl": "https://appmarket.epic.com/interconnect-amcurprd-oauth/api/FHIR/R4/Encounter/e-IYxbKQ8HqVlcgGe48qqDw3",
            "resource": {
                "resourceType": "Encounter",
                "id": "e-IYxbKQ8HqVlcgGe48qqDw3",
                "identifier": [
                    {
                        "use": "usual",
                        "system": "urn:oid:1.2.840.114350.1.13.0.1.7.3.698084.8",
                        "value": "20668"
                    }
                ],
                "status": "finished",
                "class": {
                    "system": "urn:oid:1.2.840.114350.1.72.1.7.7.10.696784.13260",
                    "code": "13",
                    "display": "Support OP Encounter"
                },
                "type": [
                    {
                        "coding": [
                            {
                                "system": "urn:oid:1.2.840.114350.1.13.0.1.7.10.698084.30",
                                "code": "101",
                                "display": "Office Visit"
                            }
                        ],
                        "text": "Office Visit"
                    }
                ],
                "subject": {
                    "reference": "Patient/e1ldMGqAW6j.-jS7UUb0ZqA3",
                    "display": "Zzfsmaster, Marcus"
                },
                "participant": [
                    {
                        "type": [
                            {
                                "text": "losAuthorizingPhysician"
                            }
                        ],
                        "individual": {
                            "reference": "Practitioner/e8q8nmCu5ehjRF8JYikiOmA3",
                            "type": "Practitioner",
                            "display": "Cardiologist Cupid, MD"
                        }
                    }
                ],
                "period": {
                    "start": "2009-06-20",
                    "end": "2009-06-20"
                },
                "reasonCode": [
                    {
                        "coding": [
                            {
                                "system": "urn:oid:1.2.840.114350.1.13.0.1.7.2.728286",
                                "code": "110033",
                                "display": "Follow-up"
                            }
                        ],
                        "text": "Follow-up"
                    }
                ],
                "location": [
                    {
                        "location": {
                            "reference": "Location/edMTlFfH6NJ009KzsRtLjgZyfcYBTM5Zu1eEO2ZKijsg3",
                            "display": "EMC Cardiology"
                        }
                    }
                ]
            },
            "search": {
                "mode": "match"
            }
        },
        {
            "link": [
                {
                    "relation": "self",
                    "url": "https://appmarket.epic.com/interconnect-amcurprd-oauth/api/FHIR/R4/Encounter/epGGsqE5sL0k9iSDVPYLQAw3"
                }
            ],
            "fullUrl": "https://appmarket.epic.com/interconnect-amcurprd-oauth/api/FHIR/R4/Encounter/epGGsqE5sL0k9iSDVPYLQAw3",
            "resource": {
                "resourceType": "Encounter",
                "id": "epGGsqE5sL0k9iSDVPYLQAw3",
                "identifier": [
                    {
                        "use": "usual",
                        "system": "urn:oid:1.2.840.114350.1.13.0.1.7.3.698084.8",
                        "value": "20669"
                    }
                ],
                "status": "finished",
                "class": {
                    "system": "urn:oid:1.2.840.114350.1.72.1.7.7.10.696784.13260",
                    "code": "13",
                    "display": "Support OP Encounter"
                },
                "type": [
                    {
                        "coding": [
                            {
                                "system": "urn:oid:1.2.840.114350.1.13.0.1.7.10.698084.30",
                                "code": "111",
                                "display": "Orders Only"
                            }
                        ],
                        "text": "Orders Only"
                    }
                ],
                "subject": {
                    "reference": "Patient/e1ldMGqAW6j.-jS7UUb0ZqA3",
                    "display": "Zzfsmaster, Marcus"
                },
                "participant": [
                    {
                        "individual": {
                            "reference": "Practitioner/eM5CWtq15N0WJeuCet5bJlQ3",
                            "type": "Practitioner",
                            "display": "Physician Family Medicine, MD"
                        }
                    }
                ],
                "period": {
                    "start": "2009-05-31",
                    "end": "2009-05-31"
                },
                "location": [
                    {
                        "location": {
                            "reference": "Location/ec0JG-sOCrCrV3Y9589n3MLfDNrmaSgRNsC3-r38zobs3",
                            "display": "EMC Family Medicine West"
                        }
                    }
                ]
            },
            "search": {
                "mode": "match"
            }
        },
        {
            "link": [
                {
                    "relation": "self",
                    "url": "https://appmarket.epic.com/interconnect-amcurprd-oauth/api/FHIR/R4/Encounter/e4sWPz-NBYSXWZSkKjiaZDA3"
                }
            ],
            "fullUrl": "https://appmarket.epic.com/interconnect-amcurprd-oauth/api/FHIR/R4/Encounter/e4sWPz-NBYSXWZSkKjiaZDA3",
            "resource": {
                "resourceType": "Encounter",
                "id": "e4sWPz-NBYSXWZSkKjiaZDA3",
                "identifier": [
                    {
                        "use": "usual",
                        "system": "urn:oid:1.2.840.114350.1.13.0.1.7.3.698084.8",
                        "value": "20670"
                    }
                ],
                "status": "finished",
                "class": {
                    "system": "urn:oid:1.2.840.114350.1.72.1.7.7.10.696784.13260",
                    "code": "13",
                    "display": "Support OP Encounter"
                },
                "type": [
                    {
                        "coding": [
                            {
                                "system": "urn:oid:1.2.840.114350.1.13.0.1.7.10.698084.30",
                                "code": "111",
                                "display": "Orders Only"
                            }
                        ],
                        "text": "Orders Only"
                    }
                ],
                "subject": {
                    "reference": "Patient/e1ldMGqAW6j.-jS7UUb0ZqA3",
                    "display": "Zzfsmaster, Marcus"
                },
                "participant": [
                    {
                        "individual": {
                            "reference": "Practitioner/eM5CWtq15N0WJeuCet5bJlQ3",
                            "type": "Practitioner",
                            "display": "Physician Family Medicine, MD"
                        }
                    }
                ],
                "period": {
                    "start": "2009-01-21",
                    "end": "2009-01-21"
                },
                "location": [
                    {
                        "location": {
                            "reference": "Location/ec0JG-sOCrCrV3Y9589n3MLfDNrmaSgRNsC3-r38zobs3",
                            "display": "EMC Family Medicine West"
                        }
                    }
                ]
            },
            "search": {
                "mode": "match"
            }
        },
        {
            "link": [
                {
                    "relation": "self",
                    "url": "https://appmarket.epic.com/interconnect-amcurprd-oauth/api/FHIR/R4/Encounter/e-A5CxvCzW7dKDD5lnOm9VA3"
                }
            ],
            "fullUrl": "https://appmarket.epic.com/interconnect-amcurprd-oauth/api/FHIR/R4/Encounter/e-A5CxvCzW7dKDD5lnOm9VA3",
            "resource": {
                "resourceType": "Encounter",
                "id": "e-A5CxvCzW7dKDD5lnOm9VA3",
                "identifier": [
                    {
                        "use": "usual",
                        "system": "urn:oid:1.2.840.114350.1.13.0.1.7.3.698084.8",
                        "value": "20671"
                    }
                ],
                "status": "finished",
                "class": {
                    "system": "urn:oid:1.2.840.114350.1.72.1.7.7.10.696784.13260",
                    "code": "13",
                    "display": "Support OP Encounter"
                },
                "type": [
                    {
                        "coding": [
                            {
                                "system": "urn:oid:1.2.840.114350.1.13.0.1.7.10.698084.30",
                                "code": "111",
                                "display": "Orders Only"
                            }
                        ],
                        "text": "Orders Only"
                    }
                ],
                "subject": {
                    "reference": "Patient/e1ldMGqAW6j.-jS7UUb0ZqA3",
                    "display": "Zzfsmaster, Marcus"
                },
                "participant": [
                    {
                        "individual": {
                            "reference": "Practitioner/eM5CWtq15N0WJeuCet5bJlQ3",
                            "type": "Practitioner",
                            "display": "Physician Family Medicine, MD"
                        }
                    }
                ],
                "period": {
                    "start": "2009-01-21",
                    "end": "2009-01-21"
                },
                "location": [
                    {
                        "location": {
                            "reference": "Location/ec0JG-sOCrCrV3Y9589n3MLfDNrmaSgRNsC3-r38zobs3",
                            "display": "EMC Family Medicine West"
                        }
                    }
                ]
            },
            "search": {
                "mode": "match"
            }
        },
        {
            "link": [
                {
                    "relation": "self",
                    "url": "https://appmarket.epic.com/interconnect-amcurprd-oauth/api/FHIR/R4/Encounter/eAL5PYknxmttgIZNV5HQf3A3"
                }
            ],
            "fullUrl": "https://appmarket.epic.com/interconnect-amcurprd-oauth/api/FHIR/R4/Encounter/eAL5PYknxmttgIZNV5HQf3A3",
            "resource": {
                "resourceType": "Encounter",
                "id": "eAL5PYknxmttgIZNV5HQf3A3",
                "identifier": [
                    {
                        "use": "usual",
                        "system": "urn:oid:1.2.840.114350.1.13.0.1.7.3.698084.8",
                        "value": "20672"
                    }
                ],
                "status": "finished",
                "class": {
                    "system": "urn:oid:1.2.840.114350.1.72.1.7.7.10.696784.13260",
                    "code": "13",
                    "display": "Support OP Encounter"
                },
                "type": [
                    {
                        "coding": [
                            {
                                "system": "urn:oid:1.2.840.114350.1.13.0.1.7.10.698084.30",
                                "code": "101",
                                "display": "Office Visit"
                            }
                        ],
                        "text": "Office Visit"
                    }
                ],
                "subject": {
                    "reference": "Patient/e1ldMGqAW6j.-jS7UUb0ZqA3",
                    "display": "Zzfsmaster, Marcus"
                },
                "participant": [
                    {
                        "type": [
                            {
                                "text": "losAuthorizingPhysician"
                            }
                        ],
                        "individual": {
                            "reference": "Practitioner/eM5CWtq15N0WJeuCet5bJlQ3",
                            "type": "Practitioner",
                            "display": "Physician Family Medicine, MD"
                        }
                    }
                ],
                "period": {
                    "start": "2008-07-13",
                    "end": "2008-07-13"
                },
                "reasonCode": [
                    {
                        "coding": [
                            {
                                "system": "urn:oid:1.2.840.114350.1.13.0.1.7.2.728286",
                                "code": "110033",
                                "display": "Follow-up"
                            }
                        ],
                        "text": "Follow-up"
                    }
                ],
                "location": [
                    {
                        "location": {
                            "reference": "Location/ec0JG-sOCrCrV3Y9589n3MLfDNrmaSgRNsC3-r38zobs3",
                            "display": "EMC Family Medicine West"
                        }
                    }
                ]
            },
            "search": {
                "mode": "match"
            }
        },
        {
            "link": [
                {
                    "relation": "self",
                    "url": "https://appmarket.epic.com/interconnect-amcurprd-oauth/api/FHIR/R4/Encounter/ePFx1ZhVuqAS2TUQ3SaJ6SA3"
                }
            ],
            "fullUrl": "https://appmarket.epic.com/interconnect-amcurprd-oauth/api/FHIR/R4/Encounter/ePFx1ZhVuqAS2TUQ3SaJ6SA3",
            "resource": {
                "resourceType": "Encounter",
                "id": "ePFx1ZhVuqAS2TUQ3SaJ6SA3",
                "identifier": [
                    {
                        "use": "usual",
                        "system": "urn:oid:1.2.840.114350.1.13.0.1.7.3.698084.8",
                        "value": "20673"
                    }
                ],
                "status": "in-progress",
                "class": {
                    "system": "urn:oid:1.2.840.114350.1.72.1.7.7.10.696784.13260",
                    "code": "13",
                    "display": "Support OP Encounter"
                },
                "type": [
                    {
                        "coding": [
                            {
                                "system": "urn:oid:1.2.840.114350.1.13.0.1.7.10.698084.30",
                                "code": "101",
                                "display": "Office Visit"
                            }
                        ],
                        "text": "Office Visit"
                    }
                ],
                "subject": {
                    "reference": "Patient/e1ldMGqAW6j.-jS7UUb0ZqA3",
                    "display": "Zzfsmaster, Marcus"
                },
                "participant": [
                    {
                        "type": [
                            {
                                "text": "losAuthorizingPhysician"
                            }
                        ],
                        "individual": {
                            "reference": "Practitioner/eM5CWtq15N0WJeuCet5bJlQ3",
                            "type": "Practitioner",
                            "display": "Physician Family Medicine, MD"
                        }
                    }
                ],
                "period": {
                    "start": "2007-05-17",
                    "end": "2007-05-17"
                },
                "reasonCode": [
                    {
                        "coding": [
                            {
                                "system": "urn:oid:1.2.840.114350.1.13.0.1.7.2.728286",
                                "code": "46",
                                "display": "Fatigue"
                            }
                        ],
                        "text": "Fatigue"
                    },
                    {
                        "coding": [
                            {
                                "system": "urn:oid:1.2.840.114350.1.13.0.1.7.2.728286",
                                "code": "110",
                                "display": "Thyroid Problem"
                            }
                        ],
                        "text": "Thyroid Problem"
                    },
                    {
                        "coding": [
                            {
                                "system": "urn:oid:1.2.840.114350.1.13.0.1.7.2.728286",
                                "code": "299",
                                "display": "Blood Pressure Check"
                            }
                        ],
                        "text": "Blood Pressure Check"
                    }
                ],
                "location": [
                    {
                        "location": {
                            "reference": "Location/ec0JG-sOCrCrV3Y9589n3MLfDNrmaSgRNsC3-r38zobs3",
                            "display": "EMC Family Medicine West"
                        }
                    }
                ]
            },
            "search": {
                "mode": "match"
            }
        },
        {
            "link": [
                {
                    "relation": "self",
                    "url": "https://appmarket.epic.com/interconnect-amcurprd-oauth/api/FHIR/R4/Encounter/eXPWNAuDEAQaSt-bUqF6g9w3"
                }
            ],
            "fullUrl": "https://appmarket.epic.com/interconnect-amcurprd-oauth/api/FHIR/R4/Encounter/eXPWNAuDEAQaSt-bUqF6g9w3",
            "resource": {
                "resourceType": "Encounter",
                "id": "eXPWNAuDEAQaSt-bUqF6g9w3",
                "identifier": [
                    {
                        "use": "usual",
                        "system": "urn:oid:1.2.840.114350.1.13.0.1.7.3.698084.8",
                        "value": "20678"
                    }
                ],
                "status": "in-progress",
                "class": {
                    "system": "urn:oid:1.2.840.114350.1.72.1.7.7.10.696784.13260",
                    "code": "13",
                    "display": "Support OP Encounter"
                },
                "type": [
                    {
                        "coding": [
                            {
                                "system": "urn:oid:1.2.840.114350.1.13.0.1.7.10.698084.30",
                                "code": "101",
                                "display": "Office Visit"
                            }
                        ],
                        "text": "Office Visit"
                    }
                ],
                "subject": {
                    "reference": "Patient/e1ldMGqAW6j.-jS7UUb0ZqA3",
                    "display": "Zzfsmaster, Marcus"
                },
                "participant": [
                    {
                        "type": [
                            {
                                "text": "losAuthorizingPhysician"
                            }
                        ],
                        "individual": {
                            "reference": "Practitioner/eM5CWtq15N0WJeuCet5bJlQ3",
                            "type": "Practitioner",
                            "display": "Physician Family Medicine, MD"
                        }
                    }
                ],
                "period": {
                    "start": "2004-10-12",
                    "end": "2004-10-12"
                },
                "reasonCode": [
                    {
                        "coding": [
                            {
                                "system": "urn:oid:1.2.840.114350.1.13.0.1.7.2.728286",
                                "code": "160490",
                                "display": "Respiratory Distress"
                            }
                        ],
                        "text": "Respiratory Distress"
                    },
                    {
                        "coding": [
                            {
                                "system": "urn:oid:1.2.840.114350.1.13.0.1.7.2.728286",
                                "code": "299",
                                "display": "Blood Pressure Check"
                            }
                        ],
                        "text": "Blood Pressure Check"
                    },
                    {
                        "coding": [
                            {
                                "system": "urn:oid:1.2.840.114350.1.13.0.1.7.2.728286",
                                "code": "110",
                                "display": "Thyroid Problem"
                            }
                        ],
                        "text": "Thyroid Problem"
                    }
                ],
                "location": [
                    {
                        "location": {
                            "reference": "Location/ec0JG-sOCrCrV3Y9589n3MLfDNrmaSgRNsC3-r38zobs3",
                            "display": "EMC Family Medicine West"
                        }
                    }
                ]
            },
            "search": {
                "mode": "match"
            }
        },
        {
            "link": [
                {
                    "relation": "self",
                    "url": "https://appmarket.epic.com/interconnect-amcurprd-oauth/api/FHIR/R4/Encounter/egVmGtho-tP.ka-UApvxWdQ3"
                }
            ],
            "fullUrl": "https://appmarket.epic.com/interconnect-amcurprd-oauth/api/FHIR/R4/Encounter/egVmGtho-tP.ka-UApvxWdQ3",
            "resource": {
                "resourceType": "Encounter",
                "id": "egVmGtho-tP.ka-UApvxWdQ3",
                "identifier": [
                    {
                        "use": "usual",
                        "system": "urn:oid:1.2.840.114350.1.13.0.1.7.3.698084.8",
                        "value": "20679"
                    }
                ],
                "status": "in-progress",
                "class": {
                    "system": "urn:oid:1.2.840.114350.1.72.1.7.7.10.696784.13260",
                    "code": "13",
                    "display": "Support OP Encounter"
                },
                "subject": {
                    "reference": "Patient/e1ldMGqAW6j.-jS7UUb0ZqA3",
                    "display": "Zzfsmaster, Marcus"
                },
                "period": {
                    "start": "2004-10-03",
                    "end": "2004-10-03"
                },
                "location": [
                    {
                        "location": {
                            "reference": "Location/eYViTe7uTvZIsepLXSt9wRrvjmIv30QJM8AzU4ESV52k3",
                            "display": " EMC Pulmonary"
                        }
                    }
                ]
            },
            "search": {
                "mode": "match"
            }
        },
        {
            "link": [
                {
                    "relation": "self",
                    "url": "https://appmarket.epic.com/interconnect-amcurprd-oauth/api/FHIR/R4/Encounter/eT-UQgs1Pnpl5xdEWvVbxmA3"
                }
            ],
            "fullUrl": "https://appmarket.epic.com/interconnect-amcurprd-oauth/api/FHIR/R4/Encounter/eT-UQgs1Pnpl5xdEWvVbxmA3",
            "resource": {
                "resourceType": "Encounter",
                "id": "eT-UQgs1Pnpl5xdEWvVbxmA3",
                "identifier": [
                    {
                        "use": "usual",
                        "system": "urn:oid:1.2.840.114350.1.13.0.1.7.3.698084.8",
                        "value": "20680"
                    }
                ],
                "status": "in-progress",
                "class": {
                    "system": "urn:oid:1.2.840.114350.1.72.1.7.7.10.696784.13260",
                    "code": "13",
                    "display": "Support OP Encounter"
                },
                "subject": {
                    "reference": "Patient/e1ldMGqAW6j.-jS7UUb0ZqA3",
                    "display": "Zzfsmaster, Marcus"
                },
                "period": {
                    "start": "2004-09-28",
                    "end": "2004-09-28"
                },
                "location": [
                    {
                        "location": {
                            "reference": "Location/eg6QUImGNJg8res-v1eSpr0HeNuJ0WY1Lc9QMEdssTfo3",
                            "display": "EMC Urgent Care"
                        }
                    }
                ]
            },
            "search": {
                "mode": "match"
            }
        },
        {
            "link": [
                {
                    "relation": "self",
                    "url": "https://appmarket.epic.com/interconnect-amcurprd-oauth/api/FHIR/R4/Encounter/e4ZBKhLmMw.eNb914EYa7kw3"
                }
            ],
            "fullUrl": "https://appmarket.epic.com/interconnect-amcurprd-oauth/api/FHIR/R4/Encounter/e4ZBKhLmMw.eNb914EYa7kw3",
            "resource": {
                "resourceType": "Encounter",
                "id": "e4ZBKhLmMw.eNb914EYa7kw3",
                "identifier": [
                    {
                        "use": "usual",
                        "system": "urn:oid:1.2.840.114350.1.13.0.1.7.3.698084.8",
                        "value": "20681"
                    }
                ],
                "status": "in-progress",
                "class": {
                    "system": "urn:oid:1.2.840.114350.1.72.1.7.7.10.696784.13260",
                    "code": "13",
                    "display": "Support OP Encounter"
                },
                "type": [
                    {
                        "coding": [
                            {
                                "system": "urn:oid:1.2.840.114350.1.13.0.1.7.10.698084.30",
                                "code": "101",
                                "display": "Office Visit"
                            }
                        ],
                        "text": "Office Visit"
                    }
                ],
                "subject": {
                    "reference": "Patient/e1ldMGqAW6j.-jS7UUb0ZqA3",
                    "display": "Zzfsmaster, Marcus"
                },
                "participant": [
                    {
                        "type": [
                            {
                                "text": "losAuthorizingPhysician"
                            }
                        ],
                        "individual": {
                            "reference": "Practitioner/eM5CWtq15N0WJeuCet5bJlQ3",
                            "type": "Practitioner",
                            "display": "Physician Family Medicine, MD"
                        }
                    }
                ],
                "period": {
                    "start": "2004-09-09",
                    "end": "2004-09-09"
                },
                "reasonCode": [
                    {
                        "coding": [
                            {
                                "system": "urn:oid:1.2.840.114350.1.13.0.1.7.2.728286",
                                "code": "270",
                                "display": "Skin Problem"
                            }
                        ],
                        "text": "Skin Problem"
                    }
                ],
                "location": [
                    {
                        "location": {
                            "reference": "Location/e4W4rmGe9QzuGm2Dy4NBqVc0KDe6yGld6HW95UuN-Qd03",
                            "display": "EMC Family Medicine"
                        }
                    }
                ]
            },
            "search": {
                "mode": "match"
            }
        },
        {
            "link": [
                {
                    "relation": "self",
                    "url": "https://appmarket.epic.com/interconnect-amcurprd-oauth/api/FHIR/R4/Encounter/eb9ZeX.uGNy3pK4ofpeU3Dw3"
                }
            ],
            "fullUrl": "https://appmarket.epic.com/interconnect-amcurprd-oauth/api/FHIR/R4/Encounter/eb9ZeX.uGNy3pK4ofpeU3Dw3",
            "resource": {
                "resourceType": "Encounter",
                "id": "eb9ZeX.uGNy3pK4ofpeU3Dw3",
                "identifier": [
                    {
                        "use": "usual",
                        "system": "urn:oid:1.2.840.114350.1.13.0.1.7.3.698084.8",
                        "value": "20682"
                    }
                ],
                "status": "in-progress",
                "class": {
                    "system": "urn:oid:1.2.840.114350.1.72.1.7.7.10.696784.13260",
                    "code": "13",
                    "display": "Support OP Encounter"
                },
                "type": [
                    {
                        "coding": [
                            {
                                "system": "urn:oid:1.2.840.114350.1.13.0.1.7.10.698084.30",
                                "code": "101",
                                "display": "Office Visit"
                            }
                        ],
                        "text": "Office Visit"
                    }
                ],
                "subject": {
                    "reference": "Patient/e1ldMGqAW6j.-jS7UUb0ZqA3",
                    "display": "Zzfsmaster, Marcus"
                },
                "participant": [
                    {
                        "type": [
                            {
                                "text": "losAuthorizingPhysician"
                            }
                        ],
                        "individual": {
                            "reference": "Practitioner/eM5CWtq15N0WJeuCet5bJlQ3",
                            "type": "Practitioner",
                            "display": "Physician Family Medicine, MD"
                        }
                    }
                ],
                "period": {
                    "start": "2004-08-22",
                    "end": "2004-08-22"
                },
                "reasonCode": [
                    {
                        "coding": [
                            {
                                "system": "urn:oid:1.2.840.114350.1.13.0.1.7.2.728286",
                                "code": "12",
                                "display": "Back Pain"
                            }
                        ],
                        "text": "Back Pain"
                    }
                ],
                "location": [
                    {
                        "location": {
                            "reference": "Location/ec0JG-sOCrCrV3Y9589n3MLfDNrmaSgRNsC3-r38zobs3",
                            "display": "EMC Family Medicine West"
                        }
                    }
                ]
            },
            "search": {
                "mode": "match"
            }
        },
        {
            "link": [
                {
                    "relation": "self",
                    "url": "https://appmarket.epic.com/interconnect-amcurprd-oauth/api/FHIR/R4/Encounter/e0K6TJOGaVb8T8jvcpsQOdg3"
                }
            ],
            "fullUrl": "https://appmarket.epic.com/interconnect-amcurprd-oauth/api/FHIR/R4/Encounter/e0K6TJOGaVb8T8jvcpsQOdg3",
            "resource": {
                "resourceType": "Encounter",
                "id": "e0K6TJOGaVb8T8jvcpsQOdg3",
                "identifier": [
                    {
                        "use": "usual",
                        "system": "urn:oid:1.2.840.114350.1.13.0.1.7.3.698084.8",
                        "value": "20683"
                    }
                ],
                "status": "in-progress",
                "class": {
                    "system": "urn:oid:1.2.840.114350.1.72.1.7.7.10.696784.13260",
                    "code": "13",
                    "display": "Support OP Encounter"
                },
                "type": [
                    {
                        "coding": [
                            {
                                "system": "urn:oid:1.2.840.114350.1.13.0.1.7.10.698084.30",
                                "code": "101",
                                "display": "Office Visit"
                            }
                        ],
                        "text": "Office Visit"
                    }
                ],
                "subject": {
                    "reference": "Patient/e1ldMGqAW6j.-jS7UUb0ZqA3",
                    "display": "Zzfsmaster, Marcus"
                },
                "participant": [
                    {
                        "type": [
                            {
                                "text": "losAuthorizingPhysician"
                            }
                        ],
                        "individual": {
                            "reference": "Practitioner/eM5CWtq15N0WJeuCet5bJlQ3",
                            "type": "Practitioner",
                            "display": "Physician Family Medicine, MD"
                        }
                    }
                ],
                "period": {
                    "start": "2004-05-23",
                    "end": "2004-05-23"
                },
                "reasonCode": [
                    {
                        "coding": [
                            {
                                "system": "urn:oid:1.2.840.114350.1.13.0.1.7.2.728286",
                                "code": "83",
                                "display": "Annual Exam"
                            }
                        ],
                        "text": "Annual Exam"
                    }
                ],
                "location": [
                    {
                        "location": {
                            "reference": "Location/ec0JG-sOCrCrV3Y9589n3MLfDNrmaSgRNsC3-r38zobs3",
                            "display": "EMC Family Medicine West"
                        }
                    }
                ]
            },
            "search": {
                "mode": "match"
            }
        },
        {
            "link": [
                {
                    "relation": "self",
                    "url": "https://appmarket.epic.com/interconnect-amcurprd-oauth/api/FHIR/R4/Encounter/eu.EzWeUXAppP5o71RZTCrw3"
                }
            ],
            "fullUrl": "https://appmarket.epic.com/interconnect-amcurprd-oauth/api/FHIR/R4/Encounter/eu.EzWeUXAppP5o71RZTCrw3",
            "resource": {
                "resourceType": "Encounter",
                "id": "eu.EzWeUXAppP5o71RZTCrw3",
                "identifier": [
                    {
                        "use": "usual",
                        "system": "urn:oid:1.2.840.114350.1.13.0.1.7.3.698084.8",
                        "value": "20684"
                    }
                ],
                "status": "finished",
                "class": {
                    "system": "urn:oid:1.2.840.114350.1.72.1.7.7.10.696784.13260",
                    "code": "13",
                    "display": "Support OP Encounter"
                },
                "type": [
                    {
                        "coding": [
                            {
                                "system": "urn:oid:1.2.840.114350.1.13.0.1.7.10.698084.30",
                                "code": "111",
                                "display": "Orders Only"
                            }
                        ],
                        "text": "Orders Only"
                    }
                ],
                "subject": {
                    "reference": "Patient/e1ldMGqAW6j.-jS7UUb0ZqA3",
                    "display": "Zzfsmaster, Marcus"
                },
                "period": {
                    "start": "2003-09-07",
                    "end": "2003-09-07"
                },
                "location": [
                    {
                        "location": {
                            "reference": "Location/ec0JG-sOCrCrV3Y9589n3MLfDNrmaSgRNsC3-r38zobs3",
                            "display": "EMC Family Medicine West"
                        }
                    }
                ]
            },
            "search": {
                "mode": "match"
            }
        },
        {
            "link": [
                {
                    "relation": "self",
                    "url": "https://appmarket.epic.com/interconnect-amcurprd-oauth/api/FHIR/R4/Encounter/ecnI6qcU3wPIpJp7ApPOG5Q3"
                }
            ],
            "fullUrl": "https://appmarket.epic.com/interconnect-amcurprd-oauth/api/FHIR/R4/Encounter/ecnI6qcU3wPIpJp7ApPOG5Q3",
            "resource": {
                "resourceType": "Encounter",
                "id": "ecnI6qcU3wPIpJp7ApPOG5Q3",
                "identifier": [
                    {
                        "use": "usual",
                        "system": "urn:oid:1.2.840.114350.1.13.0.1.7.3.698084.8",
                        "value": "20685"
                    }
                ],
                "status": "finished",
                "class": {
                    "system": "urn:oid:1.2.840.114350.1.72.1.7.7.10.696784.13260",
                    "code": "13",
                    "display": "Support OP Encounter"
                },
                "type": [
                    {
                        "coding": [
                            {
                                "system": "urn:oid:1.2.840.114350.1.13.0.1.7.10.698084.30",
                                "code": "108",
                                "display": "Immunization"
                            }
                        ],
                        "text": "Immunization"
                    }
                ],
                "subject": {
                    "reference": "Patient/e1ldMGqAW6j.-jS7UUb0ZqA3",
                    "display": "Zzfsmaster, Marcus"
                },
                "period": {
                    "start": "2003-07-15",
                    "end": "2003-07-15"
                },
                "location": [
                    {
                        "location": {
                            "reference": "Location/ec0JG-sOCrCrV3Y9589n3MLfDNrmaSgRNsC3-r38zobs3",
                            "display": "EMC Family Medicine West"
                        }
                    }
                ]
            },
            "search": {
                "mode": "match"
            }
        },
        {
            "link": [
                {
                    "relation": "self",
                    "url": "https://appmarket.epic.com/interconnect-amcurprd-oauth/api/FHIR/R4/Encounter/e9V3dUSBnBWncSN8YfdpHXA3"
                }
            ],
            "fullUrl": "https://appmarket.epic.com/interconnect-amcurprd-oauth/api/FHIR/R4/Encounter/e9V3dUSBnBWncSN8YfdpHXA3",
            "resource": {
                "resourceType": "Encounter",
                "id": "e9V3dUSBnBWncSN8YfdpHXA3",
                "identifier": [
                    {
                        "use": "usual",
                        "system": "urn:oid:1.2.840.114350.1.13.0.1.7.3.698084.8",
                        "value": "20686"
                    }
                ],
                "status": "in-progress",
                "class": {
                    "system": "urn:oid:1.2.840.114350.1.72.1.7.7.10.696784.13260",
                    "code": "13",
                    "display": "Support OP Encounter"
                },
                "type": [
                    {
                        "coding": [
                            {
                                "system": "urn:oid:1.2.840.114350.1.13.0.1.7.10.698084.30",
                                "code": "101",
                                "display": "Office Visit"
                            }
                        ],
                        "text": "Office Visit"
                    }
                ],
                "subject": {
                    "reference": "Patient/e1ldMGqAW6j.-jS7UUb0ZqA3",
                    "display": "Zzfsmaster, Marcus"
                },
                "participant": [
                    {
                        "type": [
                            {
                                "text": "losAuthorizingPhysician"
                            }
                        ],
                        "individual": {
                            "reference": "Practitioner/eM5CWtq15N0WJeuCet5bJlQ3",
                            "type": "Practitioner",
                            "display": "Physician Family Medicine, MD"
                        }
                    }
                ],
                "period": {
                    "start": "2003-06-19",
                    "end": "2003-06-19"
                },
                "reasonCode": [
                    {
                        "coding": [
                            {
                                "system": "urn:oid:1.2.840.114350.1.13.0.1.7.2.728286",
                                "code": "110033",
                                "display": "Follow-up"
                            }
                        ],
                        "text": "Follow-up"
                    },
                    {
                        "coding": [
                            {
                                "system": "urn:oid:1.2.840.114350.1.13.0.1.7.2.728286",
                                "code": "299",
                                "display": "Blood Pressure Check"
                            }
                        ],
                        "text": "Blood Pressure Check"
                    },
                    {
                        "coding": [
                            {
                                "system": "urn:oid:1.2.840.114350.1.13.0.1.7.2.728286",
                                "code": "110",
                                "display": "Thyroid Problem"
                            }
                        ],
                        "text": "Thyroid Problem"
                    }
                ],
                "location": [
                    {
                        "location": {
                            "reference": "Location/ec0JG-sOCrCrV3Y9589n3MLfDNrmaSgRNsC3-r38zobs3",
                            "display": "EMC Family Medicine West"
                        }
                    }
                ]
            },
            "search": {
                "mode": "match"
            }
        },
        {
            "link": [
                {
                    "relation": "self",
                    "url": "https://appmarket.epic.com/interconnect-amcurprd-oauth/api/FHIR/R4/Encounter/eJ1b7eT84MNai0VdWoAmw.Q3"
                }
            ],
            "fullUrl": "https://appmarket.epic.com/interconnect-amcurprd-oauth/api/FHIR/R4/Encounter/eJ1b7eT84MNai0VdWoAmw.Q3",
            "resource": {
                "resourceType": "Encounter",
                "id": "eJ1b7eT84MNai0VdWoAmw.Q3",
                "identifier": [
                    {
                        "use": "usual",
                        "system": "urn:oid:1.2.840.114350.1.13.0.1.7.3.698084.8",
                        "value": "20687"
                    }
                ],
                "status": "in-progress",
                "class": {
                    "system": "urn:oid:1.2.840.114350.1.72.1.7.7.10.696784.13260",
                    "code": "13",
                    "display": "Support OP Encounter"
                },
                "type": [
                    {
                        "coding": [
                            {
                                "system": "urn:oid:1.2.840.114350.1.13.0.1.7.10.698084.18875",
                                "code": "1",
                                "display": "Emergency"
                            }
                        ],
                        "text": "Emergency"
                    }
                ],
                "subject": {
                    "reference": "Patient/e1ldMGqAW6j.-jS7UUb0ZqA3",
                    "display": "Zzfsmaster, Marcus"
                },
                "period": {
                    "start": "2003-06-12T05:00:00Z",
                    "end": "2003-06-15T05:00:00Z"
                },
                "location": [
                    {
                        "location": {
                            "reference": "Location/etoqllw88BISbScWh4z.G.pbYDsUW3H0ysSWUxWvuE0c3",
                            "display": "EMH Inpatient Pharmacy"
                        }
                    }
                ]
            },
            "search": {
                "mode": "match"
            }
        },
        {
            "link": [
                {
                    "relation": "self",
                    "url": "https://appmarket.epic.com/interconnect-amcurprd-oauth/api/FHIR/R4/Encounter/eddaccZvVnNWAzKjns3ymtw3"
                }
            ],
            "fullUrl": "https://appmarket.epic.com/interconnect-amcurprd-oauth/api/FHIR/R4/Encounter/eddaccZvVnNWAzKjns3ymtw3",
            "resource": {
                "resourceType": "Encounter",
                "id": "eddaccZvVnNWAzKjns3ymtw3",
                "identifier": [
                    {
                        "use": "usual",
                        "system": "urn:oid:1.2.840.114350.1.13.0.1.7.3.698084.8",
                        "value": "20688"
                    }
                ],
                "status": "in-progress",
                "class": {
                    "system": "urn:oid:1.2.840.114350.1.72.1.7.7.10.696784.13260",
                    "code": "13",
                    "display": "Support OP Encounter"
                },
                "subject": {
                    "reference": "Patient/e1ldMGqAW6j.-jS7UUb0ZqA3",
                    "display": "Zzfsmaster, Marcus"
                },
                "period": {
                    "start": "2003-06-12",
                    "end": "2003-06-12"
                },
                "location": [
                    {
                        "location": {
                            "reference": "Location/eweKBcq8ruM-1MzZAX-A-0uj2rDm4SMniPONiaM5VGQk3",
                            "display": "EMH Emergency"
                        }
                    }
                ]
            },
            "search": {
                "mode": "match"
            }
        },
        {
            "link": [
                {
                    "relation": "self",
                    "url": "https://appmarket.epic.com/interconnect-amcurprd-oauth/api/FHIR/R4/Encounter/eozfj-Ch4cggshXJ8Bxtnzg3"
                }
            ],
            "fullUrl": "https://appmarket.epic.com/interconnect-amcurprd-oauth/api/FHIR/R4/Encounter/eozfj-Ch4cggshXJ8Bxtnzg3",
            "resource": {
                "resourceType": "Encounter",
                "id": "eozfj-Ch4cggshXJ8Bxtnzg3",
                "identifier": [
                    {
                        "use": "usual",
                        "system": "urn:oid:1.2.840.114350.1.13.0.1.7.3.698084.8",
                        "value": "20689"
                    }
                ],
                "status": "in-progress",
                "class": {
                    "system": "urn:oid:1.2.840.114350.1.72.1.7.7.10.696784.13260",
                    "code": "13",
                    "display": "Support OP Encounter"
                },
                "subject": {
                    "reference": "Patient/e1ldMGqAW6j.-jS7UUb0ZqA3",
                    "display": "Zzfsmaster, Marcus"
                },
                "participant": [
                    {
                        "type": [
                            {
                                "text": "losAuthorizingPhysician"
                            }
                        ],
                        "individual": {
                            "reference": "Practitioner/e8bM9BibcJ25SLe6lJi5i9Q3",
                            "type": "Practitioner",
                            "display": "Attending Physician Emergency, MD"
                        }
                    }
                ],
                "period": {
                    "start": "2002-08-04",
                    "end": "2002-08-04"
                },
                "reasonCode": [
                    {
                        "coding": [
                            {
                                "system": "urn:oid:1.2.840.114350.1.13.0.1.7.2.728286",
                                "code": "28",
                                "display": "Cough"
                            }
                        ],
                        "text": "Cough"
                    }
                ],
                "location": [
                    {
                        "location": {
                            "reference": "Location/eg6QUImGNJg8res-v1eSpr0HeNuJ0WY1Lc9QMEdssTfo3",
                            "display": "EMC Urgent Care"
                        }
                    }
                ]
            },
            "search": {
                "mode": "match"
            }
        },
        {
            "link": [
                {
                    "relation": "self",
                    "url": "https://appmarket.epic.com/interconnect-amcurprd-oauth/api/FHIR/R4/Encounter/eJ-76ninQr1yVtFQnsNEmjA3"
                }
            ],
            "fullUrl": "https://appmarket.epic.com/interconnect-amcurprd-oauth/api/FHIR/R4/Encounter/eJ-76ninQr1yVtFQnsNEmjA3",
            "resource": {
                "resourceType": "Encounter",
                "id": "eJ-76ninQr1yVtFQnsNEmjA3",
                "identifier": [
                    {
                        "use": "usual",
                        "system": "urn:oid:1.2.840.114350.1.13.0.1.7.3.698084.8",
                        "value": "20690"
                    }
                ],
                "status": "finished",
                "class": {
                    "system": "urn:oid:1.2.840.114350.1.72.1.7.7.10.696784.13260",
                    "code": "13",
                    "display": "Support OP Encounter"
                },
                "type": [
                    {
                        "coding": [
                            {
                                "system": "urn:oid:1.2.840.114350.1.13.0.1.7.10.698084.30",
                                "code": "107",
                                "display": "Refill"
                            }
                        ],
                        "text": "Refill"
                    }
                ],
                "subject": {
                    "reference": "Patient/e1ldMGqAW6j.-jS7UUb0ZqA3",
                    "display": "Zzfsmaster, Marcus"
                },
                "period": {
                    "start": "2002-01-22",
                    "end": "2002-01-22"
                },
                "reasonCode": [
                    {
                        "coding": [
                            {
                                "system": "urn:oid:1.2.840.114350.1.13.0.1.7.2.728286",
                                "code": "160383",
                                "display": "Med Refill"
                            }
                        ],
                        "text": "Med Refill"
                    }
                ],
                "location": [
                    {
                        "location": {
                            "reference": "Location/ec0JG-sOCrCrV3Y9589n3MLfDNrmaSgRNsC3-r38zobs3",
                            "display": "EMC Family Medicine West"
                        }
                    }
                ]
            },
            "search": {
                "mode": "match"
            }
        },
        {
            "link": [
                {
                    "relation": "self",
                    "url": "https://appmarket.epic.com/interconnect-amcurprd-oauth/api/FHIR/R4/Encounter/eu.cjCaRv9b6hBZalBm-IYg3"
                }
            ],
            "fullUrl": "https://appmarket.epic.com/interconnect-amcurprd-oauth/api/FHIR/R4/Encounter/eu.cjCaRv9b6hBZalBm-IYg3",
            "resource": {
                "resourceType": "Encounter",
                "id": "eu.cjCaRv9b6hBZalBm-IYg3",
                "identifier": [
                    {
                        "use": "usual",
                        "system": "urn:oid:1.2.840.114350.1.13.0.1.7.3.698084.8",
                        "value": "20691"
                    }
                ],
                "status": "in-progress",
                "class": {
                    "system": "urn:oid:1.2.840.114350.1.72.1.7.7.10.696784.13260",
                    "code": "13",
                    "display": "Support OP Encounter"
                },
                "type": [
                    {
                        "coding": [
                            {
                                "system": "urn:oid:1.2.840.114350.1.13.0.1.7.10.698084.30",
                                "code": "101",
                                "display": "Office Visit"
                            }
                        ],
                        "text": "Office Visit"
                    }
                ],
                "subject": {
                    "reference": "Patient/e1ldMGqAW6j.-jS7UUb0ZqA3",
                    "display": "Zzfsmaster, Marcus"
                },
                "participant": [
                    {
                        "type": [
                            {
                                "text": "losAuthorizingPhysician"
                            }
                        ],
                        "individual": {
                            "reference": "Practitioner/eM5CWtq15N0WJeuCet5bJlQ3",
                            "type": "Practitioner",
                            "display": "Physician Family Medicine, MD"
                        }
                    }
                ],
                "period": {
                    "start": "2001-10-25",
                    "end": "2001-10-25"
                },
                "reasonCode": [
                    {
                        "coding": [
                            {
                                "system": "urn:oid:1.2.840.114350.1.13.0.1.7.2.728286",
                                "code": "299",
                                "display": "Blood Pressure Check"
                            }
                        ],
                        "text": "Blood Pressure Check"
                    },
                    {
                        "coding": [
                            {
                                "system": "urn:oid:1.2.840.114350.1.13.0.1.7.2.728286",
                                "code": "110",
                                "display": "Thyroid Problem"
                            }
                        ],
                        "text": "Thyroid Problem"
                    }
                ],
                "location": [
                    {
                        "location": {
                            "reference": "Location/ec0JG-sOCrCrV3Y9589n3MLfDNrmaSgRNsC3-r38zobs3",
                            "display": "EMC Family Medicine West"
                        }
                    }
                ]
            },
            "search": {
                "mode": "match"
            }
        },
        {
            "link": [
                {
                    "relation": "self",
                    "url": "https://appmarket.epic.com/interconnect-amcurprd-oauth/api/FHIR/R4/Encounter/etNH.DbFIYXbsnuLFRVSxfg3"
                }
            ],
            "fullUrl": "https://appmarket.epic.com/interconnect-amcurprd-oauth/api/FHIR/R4/Encounter/etNH.DbFIYXbsnuLFRVSxfg3",
            "resource": {
                "resourceType": "Encounter",
                "id": "etNH.DbFIYXbsnuLFRVSxfg3",
                "identifier": [
                    {
                        "use": "usual",
                        "system": "urn:oid:1.2.840.114350.1.13.0.1.7.3.698084.8",
                        "value": "20692"
                    }
                ],
                "status": "finished",
                "class": {
                    "system": "urn:oid:1.2.840.114350.1.72.1.7.7.10.696784.13260",
                    "code": "13",
                    "display": "Support OP Encounter"
                },
                "type": [
                    {
                        "coding": [
                            {
                                "system": "urn:oid:1.2.840.114350.1.13.0.1.7.10.698084.30",
                                "code": "107",
                                "display": "Refill"
                            }
                        ],
                        "text": "Refill"
                    }
                ],
                "subject": {
                    "reference": "Patient/e1ldMGqAW6j.-jS7UUb0ZqA3",
                    "display": "Zzfsmaster, Marcus"
                },
                "period": {
                    "start": "2001-05-03",
                    "end": "2001-05-03"
                },
                "reasonCode": [
                    {
                        "coding": [
                            {
                                "system": "urn:oid:1.2.840.114350.1.13.0.1.7.2.728286",
                                "code": "160383",
                                "display": "Med Refill"
                            }
                        ],
                        "text": "Med Refill"
                    }
                ],
                "location": [
                    {
                        "location": {
                            "reference": "Location/ec0JG-sOCrCrV3Y9589n3MLfDNrmaSgRNsC3-r38zobs3",
                            "display": "EMC Family Medicine West"
                        }
                    }
                ]
            },
            "search": {
                "mode": "match"
            }
        },
        {
            "link": [
                {
                    "relation": "self",
                    "url": "https://appmarket.epic.com/interconnect-amcurprd-oauth/api/FHIR/R4/Encounter/eLRYcVsMyr4ZHze8RUiSYEw3"
                }
            ],
            "fullUrl": "https://appmarket.epic.com/interconnect-amcurprd-oauth/api/FHIR/R4/Encounter/eLRYcVsMyr4ZHze8RUiSYEw3",
            "resource": {
                "resourceType": "Encounter",
                "id": "eLRYcVsMyr4ZHze8RUiSYEw3",
                "identifier": [
                    {
                        "use": "usual",
                        "system": "urn:oid:1.2.840.114350.1.13.0.1.7.3.698084.8",
                        "value": "20693"
                    }
                ],
                "status": "finished",
                "class": {
                    "system": "urn:oid:1.2.840.114350.1.72.1.7.7.10.696784.13260",
                    "code": "13",
                    "display": "Support OP Encounter"
                },
                "type": [
                    {
                        "coding": [
                            {
                                "system": "urn:oid:1.2.840.114350.1.13.0.1.7.10.698084.30",
                                "code": "111",
                                "display": "Orders Only"
                            }
                        ],
                        "text": "Orders Only"
                    }
                ],
                "subject": {
                    "reference": "Patient/e1ldMGqAW6j.-jS7UUb0ZqA3",
                    "display": "Zzfsmaster, Marcus"
                },
                "period": {
                    "start": "2001-05-02",
                    "end": "2001-05-02"
                },
                "location": [
                    {
                        "location": {
                            "reference": "Location/ec0JG-sOCrCrV3Y9589n3MLfDNrmaSgRNsC3-r38zobs3",
                            "display": "EMC Family Medicine West"
                        }
                    }
                ]
            },
            "search": {
                "mode": "match"
            }
        },
        {
            "link": [
                {
                    "relation": "self",
                    "url": "https://appmarket.epic.com/interconnect-amcurprd-oauth/api/FHIR/R4/Encounter/e2zWLNMa7kydq2QTFsZrCKA3"
                }
            ],
            "fullUrl": "https://appmarket.epic.com/interconnect-amcurprd-oauth/api/FHIR/R4/Encounter/e2zWLNMa7kydq2QTFsZrCKA3",
            "resource": {
                "resourceType": "Encounter",
                "id": "e2zWLNMa7kydq2QTFsZrCKA3",
                "identifier": [
                    {
                        "use": "usual",
                        "system": "urn:oid:1.2.840.114350.1.13.0.1.7.3.698084.8",
                        "value": "20694"
                    }
                ],
                "status": "in-progress",
                "class": {
                    "system": "urn:oid:1.2.840.114350.1.72.1.7.7.10.696784.13260",
                    "code": "13",
                    "display": "Support OP Encounter"
                },
                "type": [
                    {
                        "coding": [
                            {
                                "system": "urn:oid:1.2.840.114350.1.13.0.1.7.10.698084.30",
                                "code": "101",
                                "display": "Office Visit"
                            }
                        ],
                        "text": "Office Visit"
                    }
                ],
                "subject": {
                    "reference": "Patient/e1ldMGqAW6j.-jS7UUb0ZqA3",
                    "display": "Zzfsmaster, Marcus"
                },
                "period": {
                    "start": "2001-04-30",
                    "end": "2001-04-30"
                },
                "reasonCode": [
                    {
                        "coding": [
                            {
                                "system": "urn:oid:1.2.840.114350.1.13.0.1.7.2.728286",
                                "code": "160340",
                                "display": "Knee Injury"
                            }
                        ],
                        "text": "Knee Injury"
                    }
                ],
                "location": [
                    {
                        "location": {
                            "reference": "Location/euCDowKCtJM7XCJkQOXmsLs0-2V7FYV-cyRcAVtmqyTw3",
                            "display": "EMC Orthopaedics"
                        }
                    }
                ]
            },
            "search": {
                "mode": "match"
            }
        },
        {
            "link": [
                {
                    "relation": "self",
                    "url": "https://appmarket.epic.com/interconnect-amcurprd-oauth/api/FHIR/R4/Encounter/eGfR8vpcv0SimbInnXFJE-w3"
                }
            ],
            "fullUrl": "https://appmarket.epic.com/interconnect-amcurprd-oauth/api/FHIR/R4/Encounter/eGfR8vpcv0SimbInnXFJE-w3",
            "resource": {
                "resourceType": "Encounter",
                "id": "eGfR8vpcv0SimbInnXFJE-w3",
                "identifier": [
                    {
                        "use": "usual",
                        "system": "urn:oid:1.2.840.114350.1.13.0.1.7.3.698084.8",
                        "value": "20695"
                    }
                ],
                "status": "in-progress",
                "class": {
                    "system": "urn:oid:1.2.840.114350.1.72.1.7.7.10.696784.13260",
                    "code": "13",
                    "display": "Support OP Encounter"
                },
                "subject": {
                    "reference": "Patient/e1ldMGqAW6j.-jS7UUb0ZqA3",
                    "display": "Zzfsmaster, Marcus"
                },
                "period": {
                    "start": "2001-04-27",
                    "end": "2001-04-27"
                },
                "location": [
                    {
                        "location": {
                            "reference": "Location/eweKBcq8ruM-1MzZAX-A-0uj2rDm4SMniPONiaM5VGQk3",
                            "display": "EMH Emergency"
                        }
                    }
                ]
            },
            "search": {
                "mode": "match"
            }
        },
        {
            "link": [
                {
                    "relation": "self",
                    "url": "https://appmarket.epic.com/interconnect-amcurprd-oauth/api/FHIR/R4/Encounter/eW4KM4Q-M6mDXsxZ5Zo7PWw3"
                }
            ],
            "fullUrl": "https://appmarket.epic.com/interconnect-amcurprd-oauth/api/FHIR/R4/Encounter/eW4KM4Q-M6mDXsxZ5Zo7PWw3",
            "resource": {
                "resourceType": "Encounter",
                "id": "eW4KM4Q-M6mDXsxZ5Zo7PWw3",
                "identifier": [
                    {
                        "use": "usual",
                        "system": "urn:oid:1.2.840.114350.1.13.0.1.7.3.698084.8",
                        "value": "20696"
                    }
                ],
                "status": "finished",
                "class": {
                    "system": "urn:oid:1.2.840.114350.1.72.1.7.7.10.696784.13260",
                    "code": "13",
                    "display": "Support OP Encounter"
                },
                "type": [
                    {
                        "coding": [
                            {
                                "system": "urn:oid:1.2.840.114350.1.13.0.1.7.10.698084.30",
                                "code": "70",
                                "display": "Telephone"
                            }
                        ],
                        "text": "Telephone"
                    }
                ],
                "subject": {
                    "reference": "Patient/e1ldMGqAW6j.-jS7UUb0ZqA3",
                    "display": "Zzfsmaster, Marcus"
                },
                "period": {
                    "start": "2001-01-26",
                    "end": "2001-01-26"
                },
                "reasonCode": [
                    {
                        "coding": [
                            {
                                "system": "urn:oid:1.2.840.114350.1.13.0.1.7.2.728286",
                                "code": "95",
                                "display": "Results"
                            }
                        ],
                        "text": "Results"
                    }
                ],
                "location": [
                    {
                        "location": {
                            "reference": "Location/ec0JG-sOCrCrV3Y9589n3MLfDNrmaSgRNsC3-r38zobs3",
                            "display": "EMC Family Medicine West"
                        }
                    }
                ]
            },
            "search": {
                "mode": "match"
            }
        },
        {
            "link": [
                {
                    "relation": "self",
                    "url": "https://appmarket.epic.com/interconnect-amcurprd-oauth/api/FHIR/R4/Encounter/etaGBwwO0Gq-FiNUwNqEwow3"
                }
            ],
            "fullUrl": "https://appmarket.epic.com/interconnect-amcurprd-oauth/api/FHIR/R4/Encounter/etaGBwwO0Gq-FiNUwNqEwow3",
            "resource": {
                "resourceType": "Encounter",
                "id": "etaGBwwO0Gq-FiNUwNqEwow3",
                "identifier": [
                    {
                        "use": "usual",
                        "system": "urn:oid:1.2.840.114350.1.13.0.1.7.3.698084.8",
                        "value": "20697"
                    }
                ],
                "status": "in-progress",
                "class": {
                    "system": "urn:oid:1.2.840.114350.1.72.1.7.7.10.696784.13260",
                    "code": "13",
                    "display": "Support OP Encounter"
                },
                "type": [
                    {
                        "coding": [
                            {
                                "system": "urn:oid:1.2.840.114350.1.13.0.1.7.10.698084.30",
                                "code": "101",
                                "display": "Office Visit"
                            }
                        ],
                        "text": "Office Visit"
                    }
                ],
                "subject": {
                    "reference": "Patient/e1ldMGqAW6j.-jS7UUb0ZqA3",
                    "display": "Zzfsmaster, Marcus"
                },
                "participant": [
                    {
                        "type": [
                            {
                                "text": "losAuthorizingPhysician"
                            }
                        ],
                        "individual": {
                            "reference": "Practitioner/eM5CWtq15N0WJeuCet5bJlQ3",
                            "type": "Practitioner",
                            "display": "Physician Family Medicine, MD"
                        }
                    }
                ],
                "period": {
                    "start": "2001-01-24",
                    "end": "2001-01-24"
                },
                "reasonCode": [
                    {
                        "coding": [
                            {
                                "system": "urn:oid:1.2.840.114350.1.13.0.1.7.2.728286",
                                "code": "299",
                                "display": "Blood Pressure Check"
                            }
                        ],
                        "text": "Blood Pressure Check"
                    },
                    {
                        "coding": [
                            {
                                "system": "urn:oid:1.2.840.114350.1.13.0.1.7.2.728286",
                                "code": "110",
                                "display": "Thyroid Problem"
                            }
                        ],
                        "text": "Thyroid Problem"
                    }
                ],
                "location": [
                    {
                        "location": {
                            "reference": "Location/ec0JG-sOCrCrV3Y9589n3MLfDNrmaSgRNsC3-r38zobs3",
                            "display": "EMC Family Medicine West"
                        }
                    }
                ]
            },
            "search": {
                "mode": "match"
            }
        },
        {
            "link": [
                {
                    "relation": "self",
                    "url": "https://appmarket.epic.com/interconnect-amcurprd-oauth/api/FHIR/R4/Encounter/ePX8HqGKfT.nKVMZwmtCSgw3"
                }
            ],
            "fullUrl": "https://appmarket.epic.com/interconnect-amcurprd-oauth/api/FHIR/R4/Encounter/ePX8HqGKfT.nKVMZwmtCSgw3",
            "resource": {
                "resourceType": "Encounter",
                "id": "ePX8HqGKfT.nKVMZwmtCSgw3",
                "identifier": [
                    {
                        "use": "usual",
                        "system": "urn:oid:1.2.840.114350.1.13.0.1.7.3.698084.8",
                        "value": "20698"
                    }
                ],
                "status": "in-progress",
                "class": {
                    "system": "urn:oid:1.2.840.114350.1.72.1.7.7.10.696784.13260",
                    "code": "13",
                    "display": "Support OP Encounter"
                },
                "type": [
                    {
                        "coding": [
                            {
                                "system": "urn:oid:1.2.840.114350.1.13.0.1.7.10.698084.30",
                                "code": "101",
                                "display": "Office Visit"
                            }
                        ],
                        "text": "Office Visit"
                    }
                ],
                "subject": {
                    "reference": "Patient/e1ldMGqAW6j.-jS7UUb0ZqA3",
                    "display": "Zzfsmaster, Marcus"
                },
                "participant": [
                    {
                        "type": [
                            {
                                "text": "losAuthorizingPhysician"
                            }
                        ],
                        "individual": {
                            "reference": "Practitioner/eM5CWtq15N0WJeuCet5bJlQ3",
                            "type": "Practitioner",
                            "display": "Physician Family Medicine, MD"
                        }
                    }
                ],
                "period": {
                    "start": "2000-11-20",
                    "end": "2000-11-20"
                },
                "reasonCode": [
                    {
                        "coding": [
                            {
                                "system": "urn:oid:1.2.840.114350.1.13.0.1.7.2.728286",
                                "code": "299",
                                "display": "Blood Pressure Check"
                            }
                        ],
                        "text": "Blood Pressure Check"
                    },
                    {
                        "coding": [
                            {
                                "system": "urn:oid:1.2.840.114350.1.13.0.1.7.2.728286",
                                "code": "72",
                                "display": "Nicotine Dependence"
                            }
                        ],
                        "text": "Nicotine Dependence"
                    }
                ],
                "location": [
                    {
                        "location": {
                            "reference": "Location/ec0JG-sOCrCrV3Y9589n3MLfDNrmaSgRNsC3-r38zobs3",
                            "display": "EMC Family Medicine West"
                        }
                    }
                ]
            },
            "search": {
                "mode": "match"
            }
        },
        {
            "link": [
                {
                    "relation": "self",
                    "url": "https://appmarket.epic.com/interconnect-amcurprd-oauth/api/FHIR/R4/Encounter/ecIhFZF7fiu-JmlpCm9Hs3Q3"
                }
            ],
            "fullUrl": "https://appmarket.epic.com/interconnect-amcurprd-oauth/api/FHIR/R4/Encounter/ecIhFZF7fiu-JmlpCm9Hs3Q3",
            "resource": {
                "resourceType": "Encounter",
                "id": "ecIhFZF7fiu-JmlpCm9Hs3Q3",
                "identifier": [
                    {
                        "use": "usual",
                        "system": "urn:oid:1.2.840.114350.1.13.0.1.7.3.698084.8",
                        "value": "20699"
                    }
                ],
                "status": "in-progress",
                "class": {
                    "system": "urn:oid:1.2.840.114350.1.72.1.7.7.10.696784.13260",
                    "code": "13",
                    "display": "Support OP Encounter"
                },
                "subject": {
                    "reference": "Patient/e1ldMGqAW6j.-jS7UUb0ZqA3",
                    "display": "Zzfsmaster, Marcus"
                },
                "period": {
                    "start": "2000-10-19",
                    "end": "2000-10-19"
                },
                "reasonCode": [
                    {
                        "coding": [
                            {
                                "system": "urn:oid:1.2.840.114350.1.13.0.1.7.2.728286",
                                "code": "134",
                                "display": "Flexible Sigmoidoscopy"
                            }
                        ],
                        "text": "Flexible Sigmoidoscopy"
                    }
                ],
                "location": [
                    {
                        "location": {
                            "reference": "Location/e4W4rmGe9QzuGm2Dy4NBqVc0KDe6yGld6HW95UuN-Qd03",
                            "display": "EMC Family Medicine"
                        }
                    }
                ]
            },
            "search": {
                "mode": "match"
            }
        },
        {
            "link": [
                {
                    "relation": "self",
                    "url": "https://appmarket.epic.com/interconnect-amcurprd-oauth/api/FHIR/R4/Encounter/eZhxEznbEU-yuyUw1wFAcHw3"
                }
            ],
            "fullUrl": "https://appmarket.epic.com/interconnect-amcurprd-oauth/api/FHIR/R4/Encounter/eZhxEznbEU-yuyUw1wFAcHw3",
            "resource": {
                "resourceType": "Encounter",
                "id": "eZhxEznbEU-yuyUw1wFAcHw3",
                "identifier": [
                    {
                        "use": "usual",
                        "system": "urn:oid:1.2.840.114350.1.13.0.1.7.3.698084.8",
                        "value": "20700"
                    }
                ],
                "status": "in-progress",
                "class": {
                    "system": "urn:oid:1.2.840.114350.1.72.1.7.7.10.696784.13260",
                    "code": "13",
                    "display": "Support OP Encounter"
                },
                "type": [
                    {
                        "coding": [
                            {
                                "system": "urn:oid:1.2.840.114350.1.13.0.1.7.10.698084.30",
                                "code": "101",
                                "display": "Office Visit"
                            }
                        ],
                        "text": "Office Visit"
                    }
                ],
                "subject": {
                    "reference": "Patient/e1ldMGqAW6j.-jS7UUb0ZqA3",
                    "display": "Zzfsmaster, Marcus"
                },
                "participant": [
                    {
                        "type": [
                            {
                                "text": "losAuthorizingPhysician"
                            }
                        ],
                        "individual": {
                            "reference": "Practitioner/eM5CWtq15N0WJeuCet5bJlQ3",
                            "type": "Practitioner",
                            "display": "Physician Family Medicine, MD"
                        }
                    }
                ],
                "period": {
                    "start": "2000-10-17",
                    "end": "2000-10-17"
                },
                "reasonCode": [
                    {
                        "coding": [
                            {
                                "system": "urn:oid:1.2.840.114350.1.13.0.1.7.2.728286",
                                "code": "95",
                                "display": "Results"
                            }
                        ],
                        "text": "Results"
                    }
                ],
                "location": [
                    {
                        "location": {
                            "reference": "Location/ec0JG-sOCrCrV3Y9589n3MLfDNrmaSgRNsC3-r38zobs3",
                            "display": "EMC Family Medicine West"
                        }
                    }
                ]
            },
            "search": {
                "mode": "match"
            }
        },
        {
            "link": [
                {
                    "relation": "self",
                    "url": "https://appmarket.epic.com/interconnect-amcurprd-oauth/api/FHIR/R4/Encounter/efRAq9jYrdDEu-2Rb9AmS2A3"
                }
            ],
            "fullUrl": "https://appmarket.epic.com/interconnect-amcurprd-oauth/api/FHIR/R4/Encounter/efRAq9jYrdDEu-2Rb9AmS2A3",
            "resource": {
                "resourceType": "Encounter",
                "id": "efRAq9jYrdDEu-2Rb9AmS2A3",
                "identifier": [
                    {
                        "use": "usual",
                        "system": "urn:oid:1.2.840.114350.1.13.0.1.7.3.698084.8",
                        "value": "20701"
                    }
                ],
                "status": "in-progress",
                "class": {
                    "system": "urn:oid:1.2.840.114350.1.72.1.7.7.10.696784.13260",
                    "code": "13",
                    "display": "Support OP Encounter"
                },
                "type": [
                    {
                        "coding": [
                            {
                                "system": "urn:oid:1.2.840.114350.1.13.0.1.7.10.698084.30",
                                "code": "101",
                                "display": "Office Visit"
                            }
                        ],
                        "text": "Office Visit"
                    }
                ],
                "subject": {
                    "reference": "Patient/e1ldMGqAW6j.-jS7UUb0ZqA3",
                    "display": "Zzfsmaster, Marcus"
                },
                "participant": [
                    {
                        "type": [
                            {
                                "text": "losAuthorizingPhysician"
                            }
                        ],
                        "individual": {
                            "reference": "Practitioner/eM5CWtq15N0WJeuCet5bJlQ3",
                            "type": "Practitioner",
                            "display": "Physician Family Medicine, MD"
                        }
                    }
                ],
                "period": {
                    "start": "2000-10-09",
                    "end": "2000-10-09"
                },
                "reasonCode": [
                    {
                        "coding": [
                            {
                                "system": "urn:oid:1.2.840.114350.1.13.0.1.7.2.728286",
                                "code": "83",
                                "display": "Annual Exam"
                            }
                        ],
                        "text": "Annual Exam"
                    },
                    {
                        "coding": [
                            {
                                "system": "urn:oid:1.2.840.114350.1.13.0.1.7.2.728286",
                                "code": "299",
                                "display": "Blood Pressure Check"
                            }
                        ],
                        "text": "Blood Pressure Check"
                    },
                    {
                        "coding": [
                            {
                                "system": "urn:oid:1.2.840.114350.1.13.0.1.7.2.728286",
                                "code": "160679",
                                "display": "GERD"
                            }
                        ],
                        "text": "GERD"
                    },
                    {
                        "coding": [
                            {
                                "system": "urn:oid:1.2.840.114350.1.13.0.1.7.2.728286",
                                "code": "58",
                                "display": "Immunizations"
                            }
                        ],
                        "text": "Immunizations"
                    }
                ],
                "location": [
                    {
                        "location": {
                            "reference": "Location/ec0JG-sOCrCrV3Y9589n3MLfDNrmaSgRNsC3-r38zobs3",
                            "display": "EMC Family Medicine West"
                        }
                    }
                ]
            },
            "search": {
                "mode": "match"
            }
        },
        {
            "link": [
                {
                    "relation": "self",
                    "url": "https://appmarket.epic.com/interconnect-amcurprd-oauth/api/FHIR/R4/Patient/e1ldMGqAW6j.-jS7UUb0ZqA3"
                }
            ],
            "fullUrl": "https://appmarket.epic.com/interconnect-amcurprd-oauth/api/FHIR/R4/Patient/e1ldMGqAW6j.-jS7UUb0ZqA3",
            "resource": {
                "resourceType": "Patient",
                "id": "e1ldMGqAW6j.-jS7UUb0ZqA3",
                "extension": [
                    {
                        "extension": [
                            {
                                "valueCoding": {
                                    "system": "http://terminology.hl7.org/CodeSystem/v3-NullFlavor",
                                    "code": "UNK",
                                    "display": "Unknown"
                                },
                                "url": "ombCategory"
                            },
                            {
                                "valueString": "Unknown",
                                "url": "text"
                            }
                        ],
                        "url": "http://hl7.org/fhir/us/core/StructureDefinition/us-core-race"
                    },
                    {
                        "extension": [
                            {
                                "valueString": "Unknown",
                                "url": "text"
                            }
                        ],
                        "url": "http://hl7.org/fhir/us/core/StructureDefinition/us-core-ethnicity"
                    },
                    {
                        "valueCodeableConcept": {
                            "coding": [
                                {
                                    "system": "urn:oid:1.2.840.114350.1.13.0.1.7.10.698084.130.657370.19999000",
                                    "code": "male",
                                    "display": "male"
                                }
                            ]
                        },
                        "url": "http://open.epic.com/FHIR/StructureDefinition/extension/legal-sex"
                    },
                    {
                        "valueCodeableConcept": {
                            "coding": [
                                {
                                    "system": "urn:oid:1.2.840.114350.1.13.0.1.7.10.698084.130.657370.19999000",
                                    "code": "male",
                                    "display": "male"
                                }
                            ]
                        },
                        "url": "http://open.epic.com/FHIR/StructureDefinition/extension/sex-for-clinical-use"
                    },
                    {
                        "valueCode": "M",
                        "url": "http://hl7.org/fhir/us/core/StructureDefinition/us-core-birthsex"
                    }
                ],
                "identifier": [
                    {
                        "use": "usual",
                        "system": "urn:oid:2.16.840.1.113883.4.1",
                        "value": "820-64-1732"
                    },
                    {
                        "use": "usual",
                        "type": {
                            "text": "CEID"
                        },
                        "system": "urn:epic:apporchard.curprod",
                        "value": "AO1NBL9152DVMBM"
                    },
                    {
                        "use": "usual",
                        "type": {
                            "text": "EPIC"
                        },
                        "system": "urn:oid:1.2.840.114350.1.1",
                        "value": "E4128"
                    },
                    {
                        "use": "usual",
                        "type": {
                            "text": "EXTERNAL"
                        },
                        "system": "urn:oid:1.2.840.114350.1.13.0.1.7.2.698084",
                        "value": "Z5645"
                    },
                    {
                        "use": "usual",
                        "type": {
                            "text": "FHIR"
                        },
                        "system": "http://open.epic.com/FHIR/StructureDefinition/patient-dstu2-fhir-id",
                        "value": "TPCqSoJtvOXmwdDSIDj0nViyRjmDL-WaM9bIPJJ6jCeQB"
                    },
                    {
                        "use": "usual",
                        "type": {
                            "text": "FHIR STU3"
                        },
                        "system": "http://open.epic.com/FHIR/StructureDefinition/patient-fhir-id",
                        "value": "e1ldMGqAW6j.-jS7UUb0ZqA3"
                    },
                    {
                        "use": "usual",
                        "type": {
                            "text": "INTERNAL"
                        },
                        "system": "urn:oid:1.2.840.114350.1.13.0.1.7.2.698084",
                        "value": "     Z5645"
                    },
                    {
                        "use": "usual",
                        "type": {
                            "text": "MRN"
                        },
                        "system": "urn:oid:1.2.840.114350.1.13.0.1.7.5.737384.14",
                        "value": "203882"
                    },
                    {
                        "use": "usual",
                        "type": {
                            "text": "MYCHARTLOGIN"
                        },
                        "system": "urn:oid:1.2.840.114350.1.13.0.1.7.3.878082.110",
                        "value": "MARCUS.ZZFSMASTER"
                    },
                    {
                        "use": "usual",
                        "type": {
                            "text": "WPRINTERNAL"
                        },
                        "system": "urn:oid:1.2.840.114350.1.13.0.1.7.2.878082",
                        "value": "23"
                    }
                ],
                "active": true,
                "name": [
                    {
                        "use": "old",
                        "text": "MARK",
                        "_family": {
                            "extension": [
                                {
                                    "valueCode": "unknown",
                                    "url": "http://hl7.org/fhir/StructureDefinition/data-absent-reason"
                                }
                            ]
                        }
                    },
                    {
                        "use": "official",
                        "text": "Marcus Zzfsmaster",
                        "family": "Zzfsmaster",
                        "given": [
                            "Marcus"
                        ]
                    },
                    {
                        "use": "usual",
                        "text": "Marcus Zzfsmaster",
                        "family": "Zzfsmaster",
                        "given": [
                            "Marcus"
                        ]
                    }
                ],
                "telecom": [
                    {
                        "system": "phone",
                        "value": "612-123-9865",
                        "use": "home"
                    },
                    {
                        "system": "email",
                        "value": "mburns@hotmail.com"
                    },
                    {
                        "system": "email",
                        "value": "birder@aol.com"
                    }
                ],
                "gender": "male",
                "birthDate": "1955-05-01",
                "deceasedBoolean": false,
                "address": [
                    {
                        "use": "home",
                        "line": [
                            "48291 Buenos Aires Drive",
                            "Apartment 17"
                        ],
                        "city": "Minneapolis",
                        "state": "MN",
                        "postalCode": "55411",
                        "country": "US"
                    }
                ],
                "maritalStatus": {
                    "text": "Married"
                },
                "contact": [
                    {
                        "name": {
                            "use": "usual",
                            "text": "Wendy"
                        },
                        "telecom": [
                            {
                                "system": "phone",
                                "value": "608-270-4567",
                                "use": "home"
                            }
                        ]
                    }
                ],
                "generalPractitioner": [
                    {
                        "reference": "Practitioner/eM5CWtq15N0WJeuCet5bJlQ3",
                        "type": "Practitioner",
                        "display": "Physician Family Medicine, MD"
                    }
                ],
                "managingOrganization": {
                    "reference": "Organization/enRyWnSP963FYDpoks4NHOA3",
                    "display": "Epic Hospital System"
                }
            },
            "search": {
                "mode": "include"
            }
        },
        {
            "link": [
                {
                    "relation": "self",
                    "url": "https://appmarket.epic.com/interconnect-amcurprd-oauth/api/FHIR/R4/Encounter/eWmOl.1tLyNEFIX8yLm-Ysw3"
                }
            ],
            "fullUrl": "https://appmarket.epic.com/interconnect-amcurprd-oauth/api/FHIR/R4/Encounter/eWmOl.1tLyNEFIX8yLm-Ysw3",
            "resource": {
                "resourceType": "Encounter",
                "id": "eWmOl.1tLyNEFIX8yLm-Ysw3",
                "identifier": [
                    {
                        "use": "usual",
                        "system": "urn:oid:1.2.840.114350.1.13.0.1.7.3.698084.8",
                        "value": "20656"
                    }
                ],
                "status": "planned",
                "class": {
                    "system": "urn:oid:1.2.840.114350.1.72.1.7.7.10.696784.13260",
                    "code": "3",
                    "display": "Admission"
                },
                "type": [
                    {
                        "coding": [
                            {
                                "system": "urn:oid:1.2.840.114350.1.13.0.1.7.10.698084.10110",
                                "code": "102",
                                "display": "Outpatient"
                            }
                        ],
                        "text": "Outpatient"
                    },
                    {
                        "coding": [
                            {
                                "system": "urn:oid:1.2.840.114350.1.13.0.1.7.10.698084.30",
                                "code": "3",
                                "display": "Hospital Encounter"
                            }
                        ],
                        "text": "Hospital Encounter"
                    }
                ],
                "subject": {
                    "reference": "Patient/e1ldMGqAW6j.-jS7UUb0ZqA3",
                    "display": "Zzfsmaster, Marcus"
                },
                "participant": [
                    {
                        "type": [
                            {
                                "coding": [
                                    {
                                        "system": "http://hl7.org/fhir/v3/ParticipationType",
                                        "code": "ATND",
                                        "display": "attender"
                                    }
                                ],
                                "text": "attender"
                            }
                        ],
                        "individual": {
                            "reference": "Practitioner/ele-ZY2xBro7pcU3Cfkn66Q3",
                            "type": "Practitioner",
                            "display": "Invasive Cardiologist Cupid, MD"
                        }
                    }
                ],
                "period": {
                    "start": "2013-06-12T13:10:00Z",
                    "end": "2173-09-27T14:10:00Z"
                },
                "location": [
                    {
                        "location": {
                            "reference": "Location/edMTlFfH6NJ009KzsRtLjgZyfcYBTM5Zu1eEO2ZKijsg3",
                            "display": "EMC Cardiology"
                        }
                    },
                    {
                        "location": {
                            "reference": "Location/edMTlFfH6NJ009KzsRtLjgZyfcYBTM5Zu1eEO2ZKijsg3",
                            "display": "EMC Cardiology"
                        }
                    },
                    {
                        "location": {
                            "reference": "Location/eQSOrLdbVrMRc68KBcTBG4A3",
                            "display": "Epic Hospital System"
                        }
                    }
                ]
            },
            "search": {
                "mode": "include"
            }
        }
    ]
}