{
    "resourceType": "Bundle",
    "type": "searchset",
    "total": 13,
    "link": [
        {
            "relation": "self",
            "url": "https://appmarket.epic.com/interconnect-amcurprd-oauth/api/FHIR/R4/Encounter?_include=Encounter:condition&_include=Encounter:episodeOfCare&_include=Encounter:partOf&_include=Encounter:subject&_format=json&patient=ebl8K3BhOCJiHnP-D16pYjQ3"
        }
    ],
    "entry": [
        {
            "link": [
                {
                    "relation": "self",
                    "url": "https://appmarket.epic.com/interconnect-amcurprd-oauth/api/FHIR/R4/Encounter/egZ8mriwrD6C3jtOopF3SGg3"
                }
            ],
            "fullUrl": "https://appmarket.epic.com/interconnect-amcurprd-oauth/api/FHIR/R4/Encounter/egZ8mriwrD6C3jtOopF3SGg3",
            "resource": {
                "resourceType": "Encounter",
                "id": "egZ8mriwrD6C3jtOopF3SGg3",
                "identifier": [
                    {
                        "use": "usual",
                        "system": "urn:oid:1.2.840.114350.1.13.0.1.7.3.698084.8",
                        "value": "11809"
                    }
                ],
                "status": "finished",
                "class": {
                    "system": "urn:oid:1.2.840.114350.1.72.1.7.7.10.696784.13260",
                    "code": "13",
                    "display": "Support OP Encounter"
                },
                "type": [
                    {
                        "coding": [
                            {
                                "system": "urn:oid:1.2.840.114350.1.13.0.1.7.10.698084.30",
                                "code": "111",
                                "display": "Orders Only"
                            }
                        ],
                        "text": "Orders Only"
                    }
                ],
                "subject": {
                    "reference": "Patient/ebl8K3BhOCJiHnP-D16pYjQ3",
                    "display": "Optime, Sophia"
                },
                "period": {
                    "start": "2013-11-15",
                    "end": "2013-11-15"
                },
                "location": [
                    {
                        "location": {
                            "reference": "Location/eih1L3clnoL-Odea34LokKYlHPndLwGjYudOa4y6QHvk3",
                            "display": "EMH Main Operating Room"
                        }
                    }
                ]
            },
            "search": {
                "mode": "match"
            }
        },
        {
            "link": [
                {
                    "relation": "self",
                    "url": "https://appmarket.epic.com/interconnect-amcurprd-oauth/api/FHIR/R4/Encounter/et7TIXS4UQckjmI5t1d8Ycg3"
                }
            ],
            "fullUrl": "https://appmarket.epic.com/interconnect-amcurprd-oauth/api/FHIR/R4/Encounter/et7TIXS4UQckjmI5t1d8Ycg3",
            "resource": {
                "resourceType": "Encounter",
                "id": "et7TIXS4UQckjmI5t1d8Ycg3",
                "identifier": [
                    {
                        "use": "usual",
                        "system": "urn:oid:1.2.840.114350.1.13.0.1.7.3.698084.8",
                        "value": "11813"
                    }
                ],
                "status": "unknown",
                "class": {
                    "system": "urn:oid:1.2.840.114350.1.72.1.7.7.10.696784.13260",
                    "code": "10",
                    "display": "Surgery Log"
                },
                "type": [
                    {
                        "coding": [
                            {
                                "system": "urn:oid:1.2.840.114350.1.13.0.1.7.10.698084.30",
                                "code": "51",
                                "display": "Surgery"
                            }
                        ],
                        "text": "Surgery"
                    }
                ],
                "subject": {
                    "reference": "Patient/ebl8K3BhOCJiHnP-D16pYjQ3",
                    "display": "Optime, Sophia"
                },
                "period": {
                    "start": "2013-11-13T13:40:00Z",
                    "end": "2013-11-13T15:40:00Z"
                },
                "location": [
                    {
                        "location": {
                            "reference": "Location/efR3SIdpRKF9BFBM5qakt9F5X1mWxjiAGu2hNTKbqOdI3",
                            "display": "EMH Operating Room"
                        }
                    }
                ],
                "partOf": {
                    "reference": "Encounter/eXN9gF.xeYOrRT7PzBKu.AA3",
                    "identifier": {
                        "use": "usual",
                        "system": "urn:oid:1.2.840.114350.1.13.0.1.7.3.698084.8",
                        "value": "11815"
                    },
                    "display": "Hospital Encounter"
                }
            },
            "search": {
                "mode": "match"
            }
        },
        {
            "link": [
                {
                    "relation": "self",
                    "url": "https://appmarket.epic.com/interconnect-amcurprd-oauth/api/FHIR/R4/Encounter/eXN9gF.xeYOrRT7PzBKu.AA3"
                }
            ],
            "fullUrl": "https://appmarket.epic.com/interconnect-amcurprd-oauth/api/FHIR/R4/Encounter/eXN9gF.xeYOrRT7PzBKu.AA3",
            "resource": {
                "resourceType": "Encounter",
                "id": "eXN9gF.xeYOrRT7PzBKu.AA3",
                "identifier": [
                    {
                        "use": "usual",
                        "system": "urn:oid:1.2.840.114350.1.13.0.1.7.3.698084.8",
                        "value": "11815"
                    }
                ],
                "status": "in-progress",
                "class": {
                    "system": "urn:oid:1.2.840.114350.1.72.1.7.7.10.696784.13260",
                    "code": "3",
                    "display": "Admission"
                },
                "type": [
                    {
                        "coding": [
                            {
                                "system": "urn:oid:1.2.840.114350.1.13.0.1.7.10.698084.10110",
                                "code": "101",
                                "display": "Inpatient"
                            }
                        ],
                        "text": "Inpatient"
                    },
                    {
                        "coding": [
                            {
                                "system": "urn:oid:1.2.840.114350.1.13.0.1.7.10.698084.30",
                                "code": "3",
                                "display": "Hospital Encounter"
                            }
                        ],
                        "text": "Hospital Encounter"
                    },
                    {
                        "coding": [
                            {
                                "system": "urn:oid:1.2.840.114350.1.13.0.1.7.10.698084.18875",
                                "code": "3",
                                "display": "Elective"
                            }
                        ],
                        "text": "Elective"
                    }
                ],
                "serviceType": {
                    "coding": [
                        {
                            "system": "urn:oid:1.2.840.114350.1.13.0.1.7.10.698084.18886",
                            "code": "104",
                            "display": "Cardiology"
                        }
                    ],
                    "text": "Cardiology"
                },
                "subject": {
                    "reference": "Patient/ebl8K3BhOCJiHnP-D16pYjQ3",
                    "display": "Optime, Sophia"
                },
                "participant": [
                    {
                        "type": [
                            {
                                "coding": [
                                    {
                                        "system": "http://hl7.org/fhir/v3/ParticipationType",
                                        "code": "ADM",
                                        "display": "admitter"
                                    }
                                ],
                                "text": "admitter"
                            }
                        ],
                        "individual": {
                            "reference": "Practitioner/e1E.doJCNaLCFW6.bPf-vTw3",
                            "type": "Practitioner",
                            "display": "Physician Cardiothoracic Surgery, MD"
                        }
                    },
                    {
                        "type": [
                            {
                                "coding": [
                                    {
                                        "system": "http://hl7.org/fhir/v3/ParticipationType",
                                        "code": "ATND",
                                        "display": "attender"
                                    }
                                ],
                                "text": "attender"
                            }
                        ],
                        "period": {
                            "start": "2013-05-30T17:05:00Z"
                        },
                        "individual": {
                            "reference": "Practitioner/e1E.doJCNaLCFW6.bPf-vTw3",
                            "type": "Practitioner",
                            "display": "Physician Cardiothoracic Surgery, MD"
                        }
                    }
                ],
                "period": {
                    "start": "2013-05-30T17:05:00Z"
                },
                "account": [
                    {
                        "identifier": {
                            "system": "urn:oid:1.2.840.114350.1.13.0.1.7.2.726582",
                            "value": "739"
                        },
                        "display": "OPTIME,SOPHIA"
                    }
                ],
                "hospitalization": {
                    "extension": [
                        {
                            "valueDateTime": "2013-05-30T17:05:00Z",
                            "url": "http://open.epic.com/FHIR/StructureDefinition/extension/ip-admit-datetime"
                        }
                    ],
                    "admitSource": {
                        "coding": [
                            {
                                "system": "urn:oid:1.2.840.114350.1.13.0.1.7.10.698084.10310",
                                "code": "1",
                                "display": "Non-Healthcare Facility"
                            }
                        ],
                        "text": "Non-Healthcare Facility"
                    }
                },
                "location": [
                    {
                        "location": {
                            "reference": "Location/eO-3e71xq6A5Xp7leBMrw5X-8sAl6UHIF91p7maQKFdU3",
                            "display": "EMH Medical Surgical"
                        },
                        "period": {
                            "start": "2013-05-30T17:05:00Z"
                        }
                    },
                    {
                        "location": {
                            "reference": "Location/eO-3e71xq6A5Xp7leBMrw5X-8sAl6UHIF91p7maQKFdU3",
                            "display": "EMH Medical Surgical"
                        }
                    },
                    {
                        "location": {
                            "reference": "Location/eQSOrLdbVrMRc68KBcTBG4A3",
                            "display": "Epic Hospital System"
                        }
                    },
                    {
                        "location": {
                            "reference": "Location/eVKNTRdTpQlUce0aRzkoj7w3",
                            "display": "128"
                        },
                        "physicalType": {
                            "coding": [
                                {
                                    "system": "http://terminology.hl7.org/CodeSystem/location-physical-type",
                                    "code": "ro",
                                    "display": "Room"
                                }
                            ],
                            "text": "Room"
                        }
                    },
                    {
                        "location": {
                            "identifier": {
                                "system": "urn:oid:1.2.840.114350.1.13.0.1.7.2.666968",
                                "value": "492"
                            },
                            "display": "128-02"
                        },
                        "physicalType": {
                            "coding": [
                                {
                                    "system": "http://terminology.hl7.org/CodeSystem/location-physical-type",
                                    "code": "bd",
                                    "display": "Bed"
                                }
                            ],
                            "text": "Bed"
                        }
                    }
                ]
            },
            "search": {
                "mode": "match"
            }
        },
        {
            "link": [
                {
                    "relation": "self",
                    "url": "https://appmarket.epic.com/interconnect-amcurprd-oauth/api/FHIR/R4/Encounter/e4WFnMtiQCd2Dm.uCAY4uBw3"
                }
            ],
            "fullUrl": "https://appmarket.epic.com/interconnect-amcurprd-oauth/api/FHIR/R4/Encounter/e4WFnMtiQCd2Dm.uCAY4uBw3",
            "resource": {
                "resourceType": "Encounter",
                "id": "e4WFnMtiQCd2Dm.uCAY4uBw3",
                "identifier": [
                    {
                        "use": "usual",
                        "system": "urn:oid:1.2.840.114350.1.13.0.1.7.3.698084.8",
                        "value": "11816"
                    }
                ],
                "status": "finished",
                "class": {
                    "system": "urn:oid:1.2.840.114350.1.72.1.7.7.10.696784.13260",
                    "code": "5",
                    "display": "Appointment"
                },
                "type": [
                    {
                        "coding": [
                            {
                                "system": "urn:oid:1.2.840.114350.1.13.0.1.7.10.698084.30",
                                "code": "50",
                                "display": "Appointment"
                            }
                        ],
                        "text": "Appointment"
                    },
                    {
                        "coding": [
                            {
                                "system": "urn:oid:1.2.840.114350.1.13.0.1.7.2.808267",
                                "code": "1012",
                                "display": "Flu Shot"
                            }
                        ],
                        "text": "Flu Shot"
                    }
                ],
                "subject": {
                    "reference": "Patient/ebl8K3BhOCJiHnP-D16pYjQ3",
                    "display": "Optime, Sophia"
                },
                "participant": [
                    {
                        "period": {
                            "start": "2013-05-30T13:30:00Z",
                            "end": "2013-05-30T13:45:00Z"
                        },
                        "individual": {
                            "reference": "Practitioner/erqn5oyiA9.LpVQkQ2Ulmgg3",
                            "display": "Nurse Family Medicine, RN"
                        }
                    }
                ],
                "period": {
                    "start": "2013-05-30T13:30:00Z",
                    "end": "2013-05-30T13:45:00Z"
                },
                "location": [
                    {
                        "location": {
                            "reference": "Location/e4W4rmGe9QzuGm2Dy4NBqVc0KDe6yGld6HW95UuN-Qd03",
                            "display": "EMC Family Medicine"
                        }
                    }
                ]
            },
            "search": {
                "mode": "match"
            }
        },
        {
            "link": [
                {
                    "relation": "self",
                    "url": "https://appmarket.epic.com/interconnect-amcurprd-oauth/api/FHIR/R4/Encounter/ecfRJK.x.aNdRCP3ZOJVjUA3"
                }
            ],
            "fullUrl": "https://appmarket.epic.com/interconnect-amcurprd-oauth/api/FHIR/R4/Encounter/ecfRJK.x.aNdRCP3ZOJVjUA3",
            "resource": {
                "resourceType": "Encounter",
                "id": "ecfRJK.x.aNdRCP3ZOJVjUA3",
                "identifier": [
                    {
                        "use": "usual",
                        "system": "urn:oid:1.2.840.114350.1.13.0.1.7.3.698084.8",
                        "value": "11817"
                    }
                ],
                "status": "finished",
                "class": {
                    "system": "urn:oid:1.2.840.114350.1.72.1.7.7.10.696784.13260",
                    "code": "5",
                    "display": "Appointment"
                },
                "type": [
                    {
                        "coding": [
                            {
                                "system": "urn:oid:1.2.840.114350.1.13.0.1.7.10.698084.30",
                                "code": "50",
                                "display": "Appointment"
                            }
                        ],
                        "text": "Appointment"
                    },
                    {
                        "coding": [
                            {
                                "system": "urn:oid:1.2.840.114350.1.13.0.1.7.2.808267",
                                "code": "1004",
                                "display": "Office Visit"
                            }
                        ],
                        "text": "Office Visit"
                    }
                ],
                "subject": {
                    "reference": "Patient/ebl8K3BhOCJiHnP-D16pYjQ3",
                    "display": "Optime, Sophia"
                },
                "participant": [
                    {
                        "period": {
                            "start": "2013-05-15T19:30:00Z",
                            "end": "2013-05-15T19:45:00Z"
                        },
                        "individual": {
                            "reference": "Practitioner/eM5CWtq15N0WJeuCet5bJlQ3",
                            "display": "Physician Family Medicine, MD"
                        }
                    }
                ],
                "period": {
                    "start": "2013-05-15T19:30:00Z",
                    "end": "2013-05-15T19:45:00Z"
                },
                "location": [
                    {
                        "location": {
                            "reference": "Location/e4W4rmGe9QzuGm2Dy4NBqVc0KDe6yGld6HW95UuN-Qd03",
                            "display": "EMC Family Medicine"
                        }
                    }
                ]
            },
            "search": {
                "mode": "match"
            }
        },
        {
            "link": [
                {
                    "relation": "self",
                    "url": "https://appmarket.epic.com/interconnect-amcurprd-oauth/api/FHIR/R4/Encounter/ejrrp2GwjKOt-ND3Fo7AkCw3"
                }
            ],
            "fullUrl": "https://appmarket.epic.com/interconnect-amcurprd-oauth/api/FHIR/R4/Encounter/ejrrp2GwjKOt-ND3Fo7AkCw3",
            "resource": {
                "resourceType": "Encounter",
                "id": "ejrrp2GwjKOt-ND3Fo7AkCw3",
                "identifier": [
                    {
                        "use": "usual",
                        "system": "urn:oid:1.2.840.114350.1.13.0.1.7.3.698084.8",
                        "value": "11819"
                    }
                ],
                "status": "unknown",
                "class": {
                    "system": "urn:oid:1.2.840.114350.1.72.1.7.7.10.696784.13260",
                    "code": "13",
                    "display": "Support OP Encounter"
                },
                "subject": {
                    "reference": "Patient/ebl8K3BhOCJiHnP-D16pYjQ3",
                    "display": "Optime, Sophia"
                },
                "period": {
                    "start": "2011-07-07",
                    "end": "2011-07-07"
                }
            },
            "search": {
                "mode": "match"
            }
        },
        {
            "link": [
                {
                    "relation": "self",
                    "url": "https://appmarket.epic.com/interconnect-amcurprd-oauth/api/FHIR/R4/Encounter/eEuNjC1u0LyNDegeGiZUzjw3"
                }
            ],
            "fullUrl": "https://appmarket.epic.com/interconnect-amcurprd-oauth/api/FHIR/R4/Encounter/eEuNjC1u0LyNDegeGiZUzjw3",
            "resource": {
                "resourceType": "Encounter",
                "id": "eEuNjC1u0LyNDegeGiZUzjw3",
                "identifier": [
                    {
                        "use": "usual",
                        "system": "urn:oid:1.2.840.114350.1.13.0.1.7.3.698084.8",
                        "value": "11820"
                    }
                ],
                "status": "unknown",
                "class": {
                    "system": "urn:oid:1.2.840.114350.1.72.1.7.7.10.696784.13260",
                    "code": "13",
                    "display": "Support OP Encounter"
                },
                "subject": {
                    "reference": "Patient/ebl8K3BhOCJiHnP-D16pYjQ3",
                    "display": "Optime, Sophia"
                },
                "period": {
                    "start": "2011-07-07",
                    "end": "2011-07-07"
                }
            },
            "search": {
                "mode": "match"
            }
        },
        {
            "link": [
                {
                    "relation": "self",
                    "url": "https://appmarket.epic.com/interconnect-amcurprd-oauth/api/FHIR/R4/Encounter/ent0zfvC0VDXyX9.0VVidaA3"
                }
            ],
            "fullUrl": "https://appmarket.epic.com/interconnect-amcurprd-oauth/api/FHIR/R4/Encounter/ent0zfvC0VDXyX9.0VVidaA3",
            "resource": {
                "resourceType": "Encounter",
                "id": "ent0zfvC0VDXyX9.0VVidaA3",
                "identifier": [
                    {
                        "use": "usual",
                        "system": "urn:oid:1.2.840.114350.1.13.0.1.7.3.698084.8",
                        "value": "11821"
                    }
                ],
                "status": "unknown",
                "class": {
                    "system": "urn:oid:1.2.840.114350.1.72.1.7.7.10.696784.13260",
                    "code": "13",
                    "display": "Support OP Encounter"
                },
                "subject": {
                    "reference": "Patient/ebl8K3BhOCJiHnP-D16pYjQ3",
                    "display": "Optime, Sophia"
                },
                "period": {
                    "start": "2011-06-22",
                    "end": "2011-06-22"
                }
            },
            "search": {
                "mode": "match"
            }
        },
        {
            "link": [
                {
                    "relation": "self",
                    "url": "https://appmarket.epic.com/interconnect-amcurprd-oauth/api/FHIR/R4/Encounter/e3lVzmHlezH6L97loVzy0IA3"
                }
            ],
            "fullUrl": "https://appmarket.epic.com/interconnect-amcurprd-oauth/api/FHIR/R4/Encounter/e3lVzmHlezH6L97loVzy0IA3",
            "resource": {
                "resourceType": "Encounter",
                "id": "e3lVzmHlezH6L97loVzy0IA3",
                "identifier": [
                    {
                        "use": "usual",
                        "system": "urn:oid:1.2.840.114350.1.13.0.1.7.3.698084.8",
                        "value": "11822"
                    }
                ],
                "status": "unknown",
                "class": {
                    "system": "urn:oid:1.2.840.114350.1.72.1.7.7.10.696784.13260",
                    "code": "13",
                    "display": "Support OP Encounter"
                },
                "subject": {
                    "reference": "Patient/ebl8K3BhOCJiHnP-D16pYjQ3",
                    "display": "Optime, Sophia"
                },
                "period": {
                    "start": "2011-06-03",
                    "end": "2011-06-03"
                }
            },
            "search": {
                "mode": "match"
            }
        },
        {
            "link": [
                {
                    "relation": "self",
                    "url": "https://appmarket.epic.com/interconnect-amcurprd-oauth/api/FHIR/R4/Encounter/eUZV.ErAD-LQyDWzTKokK2A3"
                }
            ],
            "fullUrl": "https://appmarket.epic.com/interconnect-amcurprd-oauth/api/FHIR/R4/Encounter/eUZV.ErAD-LQyDWzTKokK2A3",
            "resource": {
                "resourceType": "Encounter",
                "id": "eUZV.ErAD-LQyDWzTKokK2A3",
                "identifier": [
                    {
                        "use": "usual",
                        "system": "urn:oid:1.2.840.114350.1.13.0.1.7.3.698084.8",
                        "value": "11823"
                    }
                ],
                "status": "unknown",
                "class": {
                    "system": "urn:oid:1.2.840.114350.1.72.1.7.7.10.696784.13260",
                    "code": "13",
                    "display": "Support OP Encounter"
                },
                "subject": {
                    "reference": "Patient/ebl8K3BhOCJiHnP-D16pYjQ3",
                    "display": "Optime, Sophia"
                },
                "period": {
                    "start": "2010-11-03",
                    "end": "2010-11-03"
                }
            },
            "search": {
                "mode": "match"
            }
        },
        {
            "link": [
                {
                    "relation": "self",
                    "url": "https://appmarket.epic.com/interconnect-amcurprd-oauth/api/FHIR/R4/Encounter/e-bccUGCxOwkpaV2OUqxqHw3"
                }
            ],
            "fullUrl": "https://appmarket.epic.com/interconnect-amcurprd-oauth/api/FHIR/R4/Encounter/e-bccUGCxOwkpaV2OUqxqHw3",
            "resource": {
                "resourceType": "Encounter",
                "id": "e-bccUGCxOwkpaV2OUqxqHw3",
                "identifier": [
                    {
                        "use": "usual",
                        "system": "urn:oid:1.2.840.114350.1.13.0.1.7.3.698084.8",
                        "value": "11824"
                    }
                ],
                "status": "unknown",
                "class": {
                    "system": "urn:oid:1.2.840.114350.1.72.1.7.7.10.696784.13260",
                    "code": "13",
                    "display": "Support OP Encounter"
                },
                "subject": {
                    "reference": "Patient/ebl8K3BhOCJiHnP-D16pYjQ3",
                    "display": "Optime, Sophia"
                },
                "period": {
                    "start": "2010-11-03",
                    "end": "2010-11-03"
                }
            },
            "search": {
                "mode": "match"
            }
        },
        {
            "link": [
                {
                    "relation": "self",
                    "url": "https://appmarket.epic.com/interconnect-amcurprd-oauth/api/FHIR/R4/Encounter/esx88SPIgSWPJY3GDcr7aXQ3"
                }
            ],
            "fullUrl": "https://appmarket.epic.com/interconnect-amcurprd-oauth/api/FHIR/R4/Encounter/esx88SPIgSWPJY3GDcr7aXQ3",
            "resource": {
                "resourceType": "Encounter",
                "id": "esx88SPIgSWPJY3GDcr7aXQ3",
                "identifier": [
                    {
                        "use": "usual",
                        "system": "urn:oid:1.2.840.114350.1.13.0.1.7.3.698084.8",
                        "value": "11825"
                    }
                ],
                "status": "unknown",
                "class": {
                    "system": "urn:oid:1.2.840.114350.1.72.1.7.7.10.696784.13260",
                    "code": "13",
                    "display": "Support OP Encounter"
                },
                "subject": {
                    "reference": "Patient/ebl8K3BhOCJiHnP-D16pYjQ3",
                    "display": "Optime, Sophia"
                },
                "period": {
                    "start": "2010-10-19",
                    "end": "2010-10-19"
                }
            },
            "search": {
                "mode": "match"
            }
        },
        {
            "link": [
                {
                    "relation": "self",
                    "url": "https://appmarket.epic.com/interconnect-amcurprd-oauth/api/FHIR/R4/Encounter/eNysh5JLbLWG0QugFIGcjjQ3"
                }
            ],
            "fullUrl": "https://appmarket.epic.com/interconnect-amcurprd-oauth/api/FHIR/R4/Encounter/eNysh5JLbLWG0QugFIGcjjQ3",
            "resource": {
                "resourceType": "Encounter",
                "id": "eNysh5JLbLWG0QugFIGcjjQ3",
                "identifier": [
                    {
                        "use": "usual",
                        "system": "urn:oid:1.2.840.114350.1.13.0.1.7.3.698084.8",
                        "value": "11826"
                    }
                ],
                "status": "unknown",
                "class": {
                    "system": "urn:oid:1.2.840.114350.1.72.1.7.7.10.696784.13260",
                    "code": "13",
                    "display": "Support OP Encounter"
                },
                "subject": {
                    "reference": "Patient/ebl8K3BhOCJiHnP-D16pYjQ3",
                    "display": "Optime, Sophia"
                },
                "period": {
                    "start": "2010-09-30",
                    "end": "2010-09-30"
                }
            },
            "search": {
                "mode": "match"
            }
        },
        {
            "link": [
                {
                    "relation": "self",
                    "url": "https://appmarket.epic.com/interconnect-amcurprd-oauth/api/FHIR/R4/Encounter/eXN9gF.xeYOrRT7PzBKu.AA3"
                }
            ],
            "fullUrl": "https://appmarket.epic.com/interconnect-amcurprd-oauth/api/FHIR/R4/Encounter/eXN9gF.xeYOrRT7PzBKu.AA3",
            "resource": {
                "resourceType": "Encounter",
                "id": "eXN9gF.xeYOrRT7PzBKu.AA3",
                "identifier": [
                    {
                        "use": "usual",
                        "system": "urn:oid:1.2.840.114350.1.13.0.1.7.3.698084.8",
                        "value": "11815"
                    }
                ],
                "status": "in-progress",
                "class": {
                    "system": "urn:oid:1.2.840.114350.1.72.1.7.7.10.696784.13260",
                    "code": "3",
                    "display": "Admission"
                },
                "type": [
                    {
                        "coding": [
                            {
                                "system": "urn:oid:1.2.840.114350.1.13.0.1.7.10.698084.10110",
                                "code": "101",
                                "display": "Inpatient"
                            }
                        ],
                        "text": "Inpatient"
                    },
                    {
                        "coding": [
                            {
                                "system": "urn:oid:1.2.840.114350.1.13.0.1.7.10.698084.30",
                                "code": "3",
                                "display": "Hospital Encounter"
                            }
                        ],
                        "text": "Hospital Encounter"
                    },
                    {
                        "coding": [
                            {
                                "system": "urn:oid:1.2.840.114350.1.13.0.1.7.10.698084.18875",
                                "code": "3",
                                "display": "Elective"
                            }
                        ],
                        "text": "Elective"
                    }
                ],
                "serviceType": {
                    "coding": [
                        {
                            "system": "urn:oid:1.2.840.114350.1.13.0.1.7.10.698084.18886",
                            "code": "104",
                            "display": "Cardiology"
                        }
                    ],
                    "text": "Cardiology"
                },
                "subject": {
                    "reference": "Patient/ebl8K3BhOCJiHnP-D16pYjQ3",
                    "display": "Optime, Sophia"
                },
                "participant": [
                    {
                        "type": [
                            {
                                "coding": [
                                    {
                                        "system": "http://hl7.org/fhir/v3/ParticipationType",
                                        "code": "ADM",
                                        "display": "admitter"
                                    }
                                ],
                                "text": "admitter"
                            }
                        ],
                        "individual": {
                            "reference": "Practitioner/e1E.doJCNaLCFW6.bPf-vTw3",
                            "type": "Practitioner",
                            "display": "Physician Cardiothoracic Surgery, MD"
                        }
                    },
                    {
                        "type": [
                            {
                                "coding": [
                                    {
                                        "system": "http://hl7.org/fhir/v3/ParticipationType",
                                        "code": "ATND",
                                        "display": "attender"
                                    }
                                ],
                                "text": "attender"
                            }
                        ],
                        "period": {
                            "start": "2013-05-30T17:05:00Z"
                        },
                        "individual": {
                            "reference": "Practitioner/e1E.doJCNaLCFW6.bPf-vTw3",
                            "type": "Practitioner",
                            "display": "Physician Cardiothoracic Surgery, MD"
                        }
                    }
                ],
                "period": {
                    "start": "2013-05-30T17:05:00Z"
                },
                "account": [
                    {
                        "identifier": {
                            "system": "urn:oid:1.2.840.114350.1.13.0.1.7.2.726582",
                            "value": "739"
                        },
                        "display": "OPTIME,SOPHIA"
                    }
                ],
                "hospitalization": {
                    "extension": [
                        {
                            "valueDateTime": "2013-05-30T17:05:00Z",
                            "url": "http://open.epic.com/FHIR/StructureDefinition/extension/ip-admit-datetime"
                        }
                    ],
                    "admitSource": {
                        "coding": [
                            {
                                "system": "urn:oid:1.2.840.114350.1.13.0.1.7.10.698084.10310",
                                "code": "1",
                                "display": "Non-Healthcare Facility"
                            }
                        ],
                        "text": "Non-Healthcare Facility"
                    }
                },
                "location": [
                    {
                        "location": {
                            "reference": "Location/eO-3e71xq6A5Xp7leBMrw5X-8sAl6UHIF91p7maQKFdU3",
                            "display": "EMH Medical Surgical"
                        },
                        "period": {
                            "start": "2013-05-30T17:05:00Z"
                        }
                    },
                    {
                        "location": {
                            "reference": "Location/eO-3e71xq6A5Xp7leBMrw5X-8sAl6UHIF91p7maQKFdU3",
                            "display": "EMH Medical Surgical"
                        }
                    },
                    {
                        "location": {
                            "reference": "Location/eQSOrLdbVrMRc68KBcTBG4A3",
                            "display": "Epic Hospital System"
                        }
                    },
                    {
                        "location": {
                            "reference": "Location/eVKNTRdTpQlUce0aRzkoj7w3",
                            "display": "128"
                        },
                        "physicalType": {
                            "coding": [
                                {
                                    "system": "http://terminology.hl7.org/CodeSystem/location-physical-type",
                                    "code": "ro",
                                    "display": "Room"
                                }
                            ],
                            "text": "Room"
                        }
                    },
                    {
                        "location": {
                            "identifier": {
                                "system": "urn:oid:1.2.840.114350.1.13.0.1.7.2.666968",
                                "value": "492"
                            },
                            "display": "128-02"
                        },
                        "physicalType": {
                            "coding": [
                                {
                                    "system": "http://terminology.hl7.org/CodeSystem/location-physical-type",
                                    "code": "bd",
                                    "display": "Bed"
                                }
                            ],
                            "text": "Bed"
                        }
                    }
                ]
            },
            "search": {
                "mode": "include"
            }
        },
        {
            "link": [
                {
                    "relation": "self",
                    "url": "https://appmarket.epic.com/interconnect-amcurprd-oauth/api/FHIR/R4/Patient/ebl8K3BhOCJiHnP-D16pYjQ3"
                }
            ],
            "fullUrl": "https://appmarket.epic.com/interconnect-amcurprd-oauth/api/FHIR/R4/Patient/ebl8K3BhOCJiHnP-D16pYjQ3",
            "resource": {
                "resourceType": "Patient",
                "id": "ebl8K3BhOCJiHnP-D16pYjQ3",
                "extension": [
                    {
                        "extension": [
                            {
                                "valueCoding": {
                                    "system": "http://terminology.hl7.org/CodeSystem/v3-NullFlavor",
                                    "code": "UNK",
                                    "display": "Unknown"
                                },
                                "url": "ombCategory"
                            },
                            {
                                "valueString": "Unknown",
                                "url": "text"
                            }
                        ],
                        "url": "http://hl7.org/fhir/us/core/StructureDefinition/us-core-race"
                    },
                    {
                        "extension": [
                            {
                                "valueString": "Unknown",
                                "url": "text"
                            }
                        ],
                        "url": "http://hl7.org/fhir/us/core/StructureDefinition/us-core-ethnicity"
                    },
                    {
                        "valueCodeableConcept": {
                            "coding": [
                                {
                                    "system": "urn:oid:1.2.840.114350.1.13.0.1.7.10.698084.130.657370.19999000",
                                    "code": "female",
                                    "display": "female"
                                }
                            ]
                        },
                        "url": "http://open.epic.com/FHIR/StructureDefinition/extension/legal-sex"
                    },
                    {
                        "valueCodeableConcept": {
                            "coding": [
                                {
                                    "system": "urn:oid:1.2.840.114350.1.13.0.1.7.10.698084.130.657370.19999000",
                                    "code": "female",
                                    "display": "female"
                                }
                            ]
                        },
                        "url": "http://open.epic.com/FHIR/StructureDefinition/extension/sex-for-clinical-use"
                    },
                    {
                        "valueCode": "F",
                        "url": "http://hl7.org/fhir/us/core/StructureDefinition/us-core-birthsex"
                    }
                ],
                "identifier": [
                    {
                        "use": "usual",
                        "system": "urn:oid:2.16.840.1.113883.4.1",
                        "value": "572-14-4995"
                    },
                    {
                        "use": "usual",
                        "type": {
                            "text": "CEID"
                        },
                        "system": "urn:epic:apporchard.curprod",
                        "value": "AO1R6W52GF4KP2M"
                    },
                    {
                        "use": "usual",
                        "type": {
                            "text": "EPIC"
                        },
                        "system": "urn:oid:1.2.840.114350.1.1",
                        "value": "E3245"
                    },
                    {
                        "use": "usual",
                        "type": {
                            "text": "EXTERNAL"
                        },
                        "system": "urn:oid:1.2.840.114350.1.13.0.1.7.2.698084",
                        "value": "Z5096"
                    },
                    {
                        "use": "usual",
                        "type": {
                            "text": "FHIR"
                        },
                        "system": "http://open.epic.com/FHIR/StructureDefinition/patient-dstu2-fhir-id",
                        "value": "TvKBRQLkiGS8M.Xl1mVWVK99nz1rHzUqV8z7ItySKKkEB"
                    },
                    {
                        "use": "usual",
                        "type": {
                            "text": "FHIR STU3"
                        },
                        "system": "http://open.epic.com/FHIR/StructureDefinition/patient-fhir-id",
                        "value": "ebl8K3BhOCJiHnP-D16pYjQ3"
                    },
                    {
                        "use": "usual",
                        "type": {
                            "text": "INTERNAL"
                        },
                        "system": "urn:oid:1.2.840.114350.1.13.0.1.7.2.698084",
                        "value": "     Z5096"
                    },
                    {
                        "use": "usual",
                        "type": {
                            "text": "MRN"
                        },
                        "system": "urn:oid:1.2.840.114350.1.13.0.1.7.5.737384.14",
                        "value": "202995"
                    }
                ],
                "active": true,
                "name": [
                    {
                        "use": "official",
                        "text": "Sophia Optime",
                        "family": "Optime",
                        "given": [
                            "Sophia"
                        ]
                    },
                    {
                        "use": "usual",
                        "text": "Sophia Optime",
                        "family": "Optime",
                        "given": [
                            "Sophia"
                        ]
                    }
                ],
                "telecom": [
                    {
                        "system": "phone",
                        "value": "608-271-5801",
                        "use": "home"
                    }
                ],
                "gender": "female",
                "birthDate": "1967-08-13",
                "deceasedBoolean": false,
                "address": [
                    {
                        "use": "home",
                        "line": [
                            "200  Jenna Dr"
                        ],
                        "city": "Verona",
                        "state": "WI",
                        "postalCode": "53593",
                        "country": "US"
                    }
                ],
                "maritalStatus": {
                    "text": "Unknown"
                },
                "contact": [
                    {
                        "relationship": [
                            {
                                "coding": [
                                    {
                                        "system": "http://terminology.hl7.org/CodeSystem/v2-0131",
                                        "code": "O",
                                        "display": "Other"
                                    },
                                    {
                                        "system": "urn:oid:1.2.840.114350.1.13.0.1.7.4.827665.1000",
                                        "code": "5",
                                        "display": "Friend"
                                    }
                                ],
                                "text": "Friend"
                            }
                        ],
                        "name": {
                            "use": "usual",
                            "text": "Pascal OR Validate"
                        },
                        "telecom": [
                            {
                                "system": "phone",
                                "value": "608-743-7721",
                                "use": "home"
                            }
                        ],
                        "address": {
                            "use": "home",
                            "line": [
                                "50 Center St."
                            ],
                            "city": "Baraboo",
                            "state": "WI",
                            "postalCode": "53913",
                            "country": "US"
                        }
                    },
                    {
                        "relationship": [
                            {
                                "coding": [
                                    {
                                        "system": "http://terminology.hl7.org/CodeSystem/v2-0131",
                                        "code": "E",
                                        "display": "Employer"
                                    }
                                ]
                            }
                        ],
                        "telecom": [
                            {
                                "system": "phone",
                                "value": "608-271-9000",
                                "use": "work"
                            }
                        ],
                        "address": {
                            "use": "work",
                            "line": [
                                "1979 MILKY WAY"
                            ],
                            "city": "VERONA",
                            "district": "DANE",
                            "state": "WI",
                            "postalCode": "53593",
                            "country": "US"
                        },
                        "organization": {
                            "display": "Ehs Generic Employer"
                        }
                    }
                ],
                "managingOrganization": {
                    "reference": "Organization/enRyWnSP963FYDpoks4NHOA3",
                    "display": "Epic Hospital System"
                }
            },
            "search": {
                "mode": "include"
            }
        }
    ]
}