{
    "resourceType": "Bundle",
    "type": "searchset",
    "total": 5,
    "link": [
        {
            "relation": "self",
            "url": "https://appmarket.epic.com/interconnect-amcurprd-oauth/api/FHIR/R4/Encounter?_include=Encounter:condition&_include=Encounter:episodeOfCare&_include=Encounter:partOf&_include=Encounter:subject&_format=json&patient=enF.8R8hRcpUfJrskpBK5RA3"
        }
    ],
    "entry": [
        {
            "link": [
                {
                    "relation": "self",
                    "url": "https://appmarket.epic.com/interconnect-amcurprd-oauth/api/FHIR/R4/Encounter/eKKd1cEtoNYanrApZgCOKLg3"
                }
            ],
            "fullUrl": "https://appmarket.epic.com/interconnect-amcurprd-oauth/api/FHIR/R4/Encounter/eKKd1cEtoNYanrApZgCOKLg3",
            "resource": {
                "resourceType": "Encounter",
                "id": "eKKd1cEtoNYanrApZgCOKLg3",
                "identifier": [
                    {
                        "use": "usual",
                        "system": "urn:oid:1.2.840.114350.1.13.0.1.7.3.698084.8",
                        "value": "14506"
                    }
                ],
                "status": "finished",
                "class": {
                    "system": "urn:oid:1.2.840.114350.1.72.1.7.7.10.696784.13260",
                    "code": "13",
                    "display": "Support OP Encounter"
                },
                "type": [
                    {
                        "coding": [
                            {
                                "system": "urn:oid:1.2.840.114350.1.13.0.1.7.10.698084.30",
                                "code": "1200",
                                "display": "Routine Prenatal"
                            }
                        ],
                        "text": "Routine Prenatal"
                    }
                ],
                "subject": {
                    "reference": "Patient/enF.8R8hRcpUfJrskpBK5RA3",
                    "display": "Obstetrics, Amy F"
                },
                "episodeOfCare": [
                    {
                        "reference": "EpisodeOfCare/emm.3btCt4UAXeld7HQfYOg3",
                        "type": "EpisodeOfCare",
                        "display": "Pregnancy 1"
                    }
                ],
                "participant": [
                    {
                        "type": [
                            {
                                "text": "losAuthorizingPhysician"
                            }
                        ],
                        "individual": {
                            "reference": "Practitioner/eHdBpsN5eOyFCM2cUPgGuTw3",
                            "type": "Practitioner",
                            "display": "Physician Obstetrics, MD"
                        }
                    }
                ],
                "period": {
                    "start": "2013-11-23",
                    "end": "2013-11-23"
                },
                "location": [
                    {
                        "location": {
                            "reference": "Location/eBDEYzYrPL0Gg9ikW76NBzgtwO-F2yBytQjo9cNTYfZ83",
                            "display": "EMC OBGYN Clinic"
                        }
                    }
                ]
            },
            "search": {
                "mode": "match"
            }
        },
        {
            "link": [
                {
                    "relation": "self",
                    "url": "https://appmarket.epic.com/interconnect-amcurprd-oauth/api/FHIR/R4/Encounter/eEUrYQ7wYG--3bUy23-DRsQ3"
                }
            ],
            "fullUrl": "https://appmarket.epic.com/interconnect-amcurprd-oauth/api/FHIR/R4/Encounter/eEUrYQ7wYG--3bUy23-DRsQ3",
            "resource": {
                "resourceType": "Encounter",
                "id": "eEUrYQ7wYG--3bUy23-DRsQ3",
                "identifier": [
                    {
                        "use": "usual",
                        "system": "urn:oid:1.2.840.114350.1.13.0.1.7.3.698084.8",
                        "value": "14507"
                    }
                ],
                "status": "finished",
                "class": {
                    "system": "urn:oid:1.2.840.114350.1.72.1.7.7.10.696784.13260",
                    "code": "13",
                    "display": "Support OP Encounter"
                },
                "type": [
                    {
                        "coding": [
                            {
                                "system": "urn:oid:1.2.840.114350.1.13.0.1.7.10.698084.30",
                                "code": "1200",
                                "display": "Routine Prenatal"
                            }
                        ],
                        "text": "Routine Prenatal"
                    }
                ],
                "subject": {
                    "reference": "Patient/enF.8R8hRcpUfJrskpBK5RA3",
                    "display": "Obstetrics, Amy F"
                },
                "episodeOfCare": [
                    {
                        "reference": "EpisodeOfCare/emm.3btCt4UAXeld7HQfYOg3",
                        "type": "EpisodeOfCare",
                        "display": "Pregnancy 1"
                    }
                ],
                "participant": [
                    {
                        "type": [
                            {
                                "text": "losAuthorizingPhysician"
                            }
                        ],
                        "individual": {
                            "reference": "Practitioner/eHdBpsN5eOyFCM2cUPgGuTw3",
                            "type": "Practitioner",
                            "display": "Physician Obstetrics, MD"
                        }
                    }
                ],
                "period": {
                    "start": "2013-09-24",
                    "end": "2013-09-24"
                },
                "location": [
                    {
                        "location": {
                            "reference": "Location/eBDEYzYrPL0Gg9ikW76NBzgtwO-F2yBytQjo9cNTYfZ83",
                            "display": "EMC OBGYN Clinic"
                        }
                    }
                ]
            },
            "search": {
                "mode": "match"
            }
        },
        {
            "link": [
                {
                    "relation": "self",
                    "url": "https://appmarket.epic.com/interconnect-amcurprd-oauth/api/FHIR/R4/Encounter/emorbfByq7P.FYz2RCiZKPg3"
                }
            ],
            "fullUrl": "https://appmarket.epic.com/interconnect-amcurprd-oauth/api/FHIR/R4/Encounter/emorbfByq7P.FYz2RCiZKPg3",
            "resource": {
                "resourceType": "Encounter",
                "id": "emorbfByq7P.FYz2RCiZKPg3",
                "identifier": [
                    {
                        "use": "usual",
                        "system": "urn:oid:1.2.840.114350.1.13.0.1.7.3.698084.8",
                        "value": "14508"
                    }
                ],
                "status": "finished",
                "class": {
                    "system": "urn:oid:1.2.840.114350.1.72.1.7.7.10.696784.13260",
                    "code": "13",
                    "display": "Support OP Encounter"
                },
                "type": [
                    {
                        "coding": [
                            {
                                "system": "urn:oid:1.2.840.114350.1.13.0.1.7.10.698084.30",
                                "code": "1200",
                                "display": "Routine Prenatal"
                            }
                        ],
                        "text": "Routine Prenatal"
                    }
                ],
                "subject": {
                    "reference": "Patient/enF.8R8hRcpUfJrskpBK5RA3",
                    "display": "Obstetrics, Amy F"
                },
                "episodeOfCare": [
                    {
                        "reference": "EpisodeOfCare/emm.3btCt4UAXeld7HQfYOg3",
                        "type": "EpisodeOfCare",
                        "display": "Pregnancy 1"
                    }
                ],
                "participant": [
                    {
                        "type": [
                            {
                                "text": "losAuthorizingPhysician"
                            }
                        ],
                        "individual": {
                            "reference": "Practitioner/eHdBpsN5eOyFCM2cUPgGuTw3",
                            "type": "Practitioner",
                            "display": "Physician Obstetrics, MD"
                        }
                    }
                ],
                "period": {
                    "start": "2013-08-30",
                    "end": "2013-08-30"
                },
                "location": [
                    {
                        "location": {
                            "reference": "Location/eBDEYzYrPL0Gg9ikW76NBzgtwO-F2yBytQjo9cNTYfZ83",
                            "display": "EMC OBGYN Clinic"
                        }
                    }
                ]
            },
            "search": {
                "mode": "match"
            }
        },
        {
            "link": [
                {
                    "relation": "self",
                    "url": "https://appmarket.epic.com/interconnect-amcurprd-oauth/api/FHIR/R4/Encounter/eMvTB2lxNMPWZ3-ho-.6.MQ3"
                }
            ],
            "fullUrl": "https://appmarket.epic.com/interconnect-amcurprd-oauth/api/FHIR/R4/Encounter/eMvTB2lxNMPWZ3-ho-.6.MQ3",
            "resource": {
                "resourceType": "Encounter",
                "id": "eMvTB2lxNMPWZ3-ho-.6.MQ3",
                "identifier": [
                    {
                        "use": "usual",
                        "system": "urn:oid:1.2.840.114350.1.13.0.1.7.3.698084.8",
                        "value": "14510"
                    }
                ],
                "status": "finished",
                "class": {
                    "system": "urn:oid:1.2.840.114350.1.72.1.7.7.10.696784.13260",
                    "code": "13",
                    "display": "Support OP Encounter"
                },
                "type": [
                    {
                        "coding": [
                            {
                                "system": "urn:oid:1.2.840.114350.1.13.0.1.7.10.698084.30",
                                "code": "1200",
                                "display": "Routine Prenatal"
                            }
                        ],
                        "text": "Routine Prenatal"
                    }
                ],
                "subject": {
                    "reference": "Patient/enF.8R8hRcpUfJrskpBK5RA3",
                    "display": "Obstetrics, Amy F"
                },
                "episodeOfCare": [
                    {
                        "reference": "EpisodeOfCare/emm.3btCt4UAXeld7HQfYOg3",
                        "type": "EpisodeOfCare",
                        "display": "Pregnancy 1"
                    }
                ],
                "participant": [
                    {
                        "type": [
                            {
                                "text": "losAuthorizingPhysician"
                            }
                        ],
                        "individual": {
                            "reference": "Practitioner/eHdBpsN5eOyFCM2cUPgGuTw3",
                            "type": "Practitioner",
                            "display": "Physician Obstetrics, MD"
                        }
                    }
                ],
                "period": {
                    "start": "2013-07-31",
                    "end": "2013-07-31"
                },
                "location": [
                    {
                        "location": {
                            "reference": "Location/eBDEYzYrPL0Gg9ikW76NBzgtwO-F2yBytQjo9cNTYfZ83",
                            "display": "EMC OBGYN Clinic"
                        }
                    }
                ]
            },
            "search": {
                "mode": "match"
            }
        },
        {
            "link": [
                {
                    "relation": "self",
                    "url": "https://appmarket.epic.com/interconnect-amcurprd-oauth/api/FHIR/R4/Encounter/eZdpjJ6z05vGgT3LCS0xykQ3"
                }
            ],
            "fullUrl": "https://appmarket.epic.com/interconnect-amcurprd-oauth/api/FHIR/R4/Encounter/eZdpjJ6z05vGgT3LCS0xykQ3",
            "resource": {
                "resourceType": "Encounter",
                "id": "eZdpjJ6z05vGgT3LCS0xykQ3",
                "identifier": [
                    {
                        "use": "usual",
                        "system": "urn:oid:1.2.840.114350.1.13.0.1.7.3.698084.8",
                        "value": "14512"
                    }
                ],
                "status": "finished",
                "class": {
                    "system": "urn:oid:1.2.840.114350.1.72.1.7.7.10.696784.13260",
                    "code": "13",
                    "display": "Support OP Encounter"
                },
                "type": [
                    {
                        "coding": [
                            {
                                "system": "urn:oid:1.2.840.114350.1.13.0.1.7.10.698084.30",
                                "code": "1201",
                                "display": "Initial Prenatal"
                            }
                        ],
                        "text": "Initial Prenatal"
                    }
                ],
                "subject": {
                    "reference": "Patient/enF.8R8hRcpUfJrskpBK5RA3",
                    "display": "Obstetrics, Amy F"
                },
                "episodeOfCare": [
                    {
                        "reference": "EpisodeOfCare/emm.3btCt4UAXeld7HQfYOg3",
                        "type": "EpisodeOfCare",
                        "display": "Pregnancy 1"
                    }
                ],
                "participant": [
                    {
                        "type": [
                            {
                                "text": "losAuthorizingPhysician"
                            }
                        ],
                        "individual": {
                            "reference": "Practitioner/eHdBpsN5eOyFCM2cUPgGuTw3",
                            "type": "Practitioner",
                            "display": "Physician Obstetrics, MD"
                        }
                    }
                ],
                "period": {
                    "start": "2013-07-01",
                    "end": "2013-07-01"
                },
                "reasonCode": [
                    {
                        "coding": [
                            {
                                "system": "urn:oid:1.2.840.114350.1.13.0.1.7.2.728286",
                                "code": "120001",
                                "display": "Initial Prenatal Visit"
                            }
                        ],
                        "text": "Initial Prenatal Visit"
                    }
                ],
                "location": [
                    {
                        "location": {
                            "reference": "Location/eBDEYzYrPL0Gg9ikW76NBzgtwO-F2yBytQjo9cNTYfZ83",
                            "display": "EMC OBGYN Clinic"
                        }
                    }
                ]
            },
            "search": {
                "mode": "match"
            }
        },
        {
            "link": [
                {
                    "relation": "self",
                    "url": "https://appmarket.epic.com/interconnect-amcurprd-oauth/api/FHIR/R4/EpisodeOfCare/emm.3btCt4UAXeld7HQfYOg3"
                }
            ],
            "fullUrl": "https://appmarket.epic.com/interconnect-amcurprd-oauth/api/FHIR/R4/EpisodeOfCare/emm.3btCt4UAXeld7HQfYOg3",
            "resource": {
                "resourceType": "EpisodeOfCare",
                "id": "emm.3btCt4UAXeld7HQfYOg3",
                "extension": [
                    {
                        "valueString": "Pregnancy 1",
                        "url": "http://open.epic.com/FHIR/StructureDefinition/extension/episode-name"
                    }
                ],
                "status": "finished",
                "type": [
                    {
                        "coding": [
                            {
                                "system": "urn:oid:1.2.840.114350.1.13.0.1.7.2.726668",
                                "code": "2",
                                "display": "Pregnancy"
                            },
                            {
                                "system": "urn:oid:1.2.840.114350.1.13.0.1.7.4.726668.130",
                                "code": "1",
                                "display": "Obstetrics"
                            }
                        ],
                        "text": "Pregnancy"
                    }
                ],
                "patient": {
                    "reference": "Patient/enF.8R8hRcpUfJrskpBK5RA3",
                    "type": "Patient",
                    "display": "Obstetrics, Amy F"
                },
                "period": {
                    "start": "2013-07-01",
                    "end": "2017-07-05"
                },
                "team": [
                    {
                        "reference": "CareTeam/eLgdCbuOxFDx9GGoi97cYGsUjBBiHwXUwXzFVBtSXiXc3",
                        "type": "CareTeam"
                    }
                ]
            },
            "search": {
                "mode": "include"
            }
        },
        {
            "link": [
                {
                    "relation": "self",
                    "url": "https://appmarket.epic.com/interconnect-amcurprd-oauth/api/FHIR/R4/Patient/enF.8R8hRcpUfJrskpBK5RA3"
                }
            ],
            "fullUrl": "https://appmarket.epic.com/interconnect-amcurprd-oauth/api/FHIR/R4/Patient/enF.8R8hRcpUfJrskpBK5RA3",
            "resource": {
                "resourceType": "Patient",
                "id": "enF.8R8hRcpUfJrskpBK5RA3",
                "extension": [
                    {
                        "extension": [
                            {
                                "valueCoding": {
                                    "system": "http://terminology.hl7.org/CodeSystem/v3-NullFlavor",
                                    "code": "UNK",
                                    "display": "Unknown"
                                },
                                "url": "ombCategory"
                            },
                            {
                                "valueString": "Unknown",
                                "url": "text"
                            }
                        ],
                        "url": "http://hl7.org/fhir/us/core/StructureDefinition/us-core-race"
                    },
                    {
                        "extension": [
                            {
                                "valueString": "Unknown",
                                "url": "text"
                            }
                        ],
                        "url": "http://hl7.org/fhir/us/core/StructureDefinition/us-core-ethnicity"
                    },
                    {
                        "valueCodeableConcept": {
                            "coding": [
                                {
                                    "system": "urn:oid:1.2.840.114350.1.13.0.1.7.10.698084.130.657370.19999000",
                                    "code": "female",
                                    "display": "female"
                                }
                            ]
                        },
                        "url": "http://open.epic.com/FHIR/StructureDefinition/extension/legal-sex"
                    },
                    {
                        "valueCodeableConcept": {
                            "coding": [
                                {
                                    "system": "urn:oid:1.2.840.114350.1.13.0.1.7.10.698084.130.657370.19999000",
                                    "code": "female",
                                    "display": "female"
                                }
                            ]
                        },
                        "url": "http://open.epic.com/FHIR/StructureDefinition/extension/sex-for-clinical-use"
                    },
                    {
                        "valueCode": "F",
                        "url": "http://hl7.org/fhir/us/core/StructureDefinition/us-core-birthsex"
                    }
                ],
                "identifier": [
                    {
                        "use": "usual",
                        "system": "urn:oid:2.16.840.1.113883.4.1",
                        "value": "489-26-8065"
                    },
                    {
                        "use": "usual",
                        "type": {
                            "text": "CEID"
                        },
                        "system": "urn:epic:apporchard.curprod",
                        "value": "AO15WPX9DT63WQ5"
                    },
                    {
                        "use": "usual",
                        "type": {
                            "text": "EPIC"
                        },
                        "system": "urn:oid:1.2.840.114350.1.1",
                        "value": "E2901"
                    },
                    {
                        "use": "usual",
                        "type": {
                            "text": "EXTERNAL"
                        },
                        "system": "urn:oid:1.2.840.114350.1.13.0.1.7.2.698084",
                        "value": "Z5279"
                    },
                    {
                        "use": "usual",
                        "type": {
                            "text": "FHIR"
                        },
                        "system": "http://open.epic.com/FHIR/StructureDefinition/patient-dstu2-fhir-id",
                        "value": "TzFs3oVWiiyLMuevC69OeZTckozVzsAMJKOKEgxw9jUYB"
                    },
                    {
                        "use": "usual",
                        "type": {
                            "text": "FHIR STU3"
                        },
                        "system": "http://open.epic.com/FHIR/StructureDefinition/patient-fhir-id",
                        "value": "enF.8R8hRcpUfJrskpBK5RA3"
                    },
                    {
                        "use": "usual",
                        "type": {
                            "text": "INTERNAL"
                        },
                        "system": "urn:oid:1.2.840.114350.1.13.0.1.7.2.698084",
                        "value": "     Z5279"
                    },
                    {
                        "use": "usual",
                        "type": {
                            "text": "MRN"
                        },
                        "system": "urn:oid:1.2.840.114350.1.13.0.1.7.5.737384.14",
                        "value": "202667"
                    }
                ],
                "active": true,
                "name": [
                    {
                        "use": "official",
                        "text": "Amy F Obstetrics",
                        "family": "Obstetrics",
                        "given": [
                            "Amy",
                            "F"
                        ]
                    },
                    {
                        "use": "usual",
                        "text": "Amy F Obstetrics",
                        "family": "Obstetrics",
                        "given": [
                            "Amy",
                            "F"
                        ]
                    }
                ],
                "telecom": [
                    {
                        "system": "phone",
                        "value": "608-251-1157",
                        "use": "home"
                    },
                    {
                        "system": "phone",
                        "value": "608-251-8845",
                        "use": "work"
                    },
                    {
                        "system": "phone",
                        "value": "608-213-1477",
                        "use": "mobile"
                    }
                ],
                "gender": "female",
                "birthDate": "1984-08-22",
                "deceasedBoolean": false,
                "address": [
                    {
                        "use": "home",
                        "line": [
                            "311 Maple Lane"
                        ],
                        "city": "Madison",
                        "state": "WI",
                        "postalCode": "53713",
                        "country": "US"
                    }
                ],
                "maritalStatus": {
                    "text": "Married"
                },
                "contact": [
                    {
                        "relationship": [
                            {
                                "coding": [
                                    {
                                        "system": "http://terminology.hl7.org/CodeSystem/v2-0131",
                                        "code": "C",
                                        "display": "Emergency Contact"
                                    },
                                    {
                                        "system": "urn:oid:1.2.840.114350.1.13.0.1.7.4.827665.1000",
                                        "code": "17",
                                        "display": "Spouse"
                                    }
                                ],
                                "text": "Spouse"
                            }
                        ],
                        "name": {
                            "use": "usual",
                            "text": "Obstetrics,Elliot"
                        }
                    }
                ],
                "generalPractitioner": [
                    {
                        "reference": "Practitioner/eM5CWtq15N0WJeuCet5bJlQ3",
                        "type": "Practitioner",
                        "display": "Physician Family Medicine, MD"
                    }
                ],
                "managingOrganization": {
                    "reference": "Organization/enRyWnSP963FYDpoks4NHOA3",
                    "display": "Epic Hospital System"
                }
            },
            "search": {
                "mode": "include"
            }
        }
    ]
}