{
    "resourceType": "Bundle",
    "type": "searchset",
    "total": 62,
    "link": [
        {
            "relation": "self",
            "url": "https://appmarket.epic.com/interconnect-amcurprd-oauth/api/FHIR/R4/Encounter?_include=Encounter:condition&_include=Encounter:episodeOfCare&_include=Encounter:partOf&_include=Encounter:subject&_format=json&patient=e-oM0jGCeUgAHF7bTfNWXzw3"
        }
    ],
    "entry": [
        {
            "link": [
                {
                    "relation": "self",
                    "url": "https://appmarket.epic.com/interconnect-amcurprd-oauth/api/FHIR/R4/Encounter/eUdn6aZgEwOBLXlDk75GaOA3"
                }
            ],
            "fullUrl": "https://appmarket.epic.com/interconnect-amcurprd-oauth/api/FHIR/R4/Encounter/eUdn6aZgEwOBLXlDk75GaOA3",
            "resource": {
                "resourceType": "Encounter",
                "id": "eUdn6aZgEwOBLXlDk75GaOA3",
                "identifier": [
                    {
                        "use": "usual",
                        "system": "urn:oid:1.2.840.114350.1.13.0.1.7.3.698084.8",
                        "value": "7249"
                    }
                ],
                "status": "finished",
                "class": {
                    "system": "urn:oid:1.2.840.114350.1.72.1.7.7.10.696784.13260",
                    "code": "13",
                    "display": "Support OP Encounter"
                },
                "type": [
                    {
                        "coding": [
                            {
                                "system": "urn:oid:1.2.840.114350.1.13.0.1.7.10.698084.30",
                                "code": "150",
                                "display": "Abstract"
                            }
                        ],
                        "text": "Abstract"
                    }
                ],
                "subject": {
                    "reference": "Patient/e-oM0jGCeUgAHF7bTfNWXzw3",
                    "display": "Liver, Len Txpq"
                },
                "episodeOfCare": [
                    {
                        "reference": "EpisodeOfCare/eDBWouZInJAfS7BYbJJtBfA3",
                        "type": "EpisodeOfCare",
                        "display": "Liver Episode (Transplanted  2/16/2010) - Transplant 1 "
                    }
                ],
                "period": {
                    "start": "2013-11-12",
                    "end": "2013-11-12"
                },
                "location": [
                    {
                        "location": {
                            "reference": "Location/e.zUbzUZH9WErlJkdM0-hMZY7Z6JkVK.ftghaWm0ZCLs3",
                            "display": "EMH Abdominal Transplant"
                        }
                    }
                ]
            },
            "search": {
                "mode": "match"
            }
        },
        {
            "link": [
                {
                    "relation": "self",
                    "url": "https://appmarket.epic.com/interconnect-amcurprd-oauth/api/FHIR/R4/Encounter/eNgEog.lUEVVkUhUU00npXQ3"
                }
            ],
            "fullUrl": "https://appmarket.epic.com/interconnect-amcurprd-oauth/api/FHIR/R4/Encounter/eNgEog.lUEVVkUhUU00npXQ3",
            "resource": {
                "resourceType": "Encounter",
                "id": "eNgEog.lUEVVkUhUU00npXQ3",
                "identifier": [
                    {
                        "use": "usual",
                        "system": "urn:oid:1.2.840.114350.1.13.0.1.7.3.698084.8",
                        "value": "7250"
                    }
                ],
                "status": "finished",
                "class": {
                    "system": "urn:oid:1.2.840.114350.1.72.1.7.7.10.696784.13260",
                    "code": "13",
                    "display": "Support OP Encounter"
                },
                "type": [
                    {
                        "coding": [
                            {
                                "system": "urn:oid:1.2.840.114350.1.13.0.1.7.10.698084.30",
                                "code": "111",
                                "display": "Orders Only"
                            }
                        ],
                        "text": "Orders Only"
                    }
                ],
                "subject": {
                    "reference": "Patient/e-oM0jGCeUgAHF7bTfNWXzw3",
                    "display": "Liver, Len Txpq"
                },
                "episodeOfCare": [
                    {
                        "reference": "EpisodeOfCare/eDBWouZInJAfS7BYbJJtBfA3",
                        "type": "EpisodeOfCare",
                        "display": "Liver Episode (Transplanted  2/16/2010) - Transplant 1 "
                    }
                ],
                "period": {
                    "start": "2013-10-05",
                    "end": "2013-10-05"
                },
                "location": [
                    {
                        "location": {
                            "reference": "Location/e.zUbzUZH9WErlJkdM0-hMZY7Z6JkVK.ftghaWm0ZCLs3",
                            "display": "EMH Abdominal Transplant"
                        }
                    }
                ]
            },
            "search": {
                "mode": "match"
            }
        },
        {
            "link": [
                {
                    "relation": "self",
                    "url": "https://appmarket.epic.com/interconnect-amcurprd-oauth/api/FHIR/R4/Encounter/ePATUIBO259bIM2fDajFYkg3"
                }
            ],
            "fullUrl": "https://appmarket.epic.com/interconnect-amcurprd-oauth/api/FHIR/R4/Encounter/ePATUIBO259bIM2fDajFYkg3",
            "resource": {
                "resourceType": "Encounter",
                "id": "ePATUIBO259bIM2fDajFYkg3",
                "identifier": [
                    {
                        "use": "usual",
                        "system": "urn:oid:1.2.840.114350.1.13.0.1.7.3.698084.8",
                        "value": "7251"
                    }
                ],
                "status": "in-progress",
                "class": {
                    "system": "urn:oid:1.2.840.114350.1.72.1.7.7.10.696784.13260",
                    "code": "13",
                    "display": "Support OP Encounter"
                },
                "type": [
                    {
                        "coding": [
                            {
                                "system": "urn:oid:1.2.840.114350.1.13.0.1.7.10.698084.30",
                                "code": "150",
                                "display": "Abstract"
                            }
                        ],
                        "text": "Abstract"
                    }
                ],
                "subject": {
                    "reference": "Patient/e-oM0jGCeUgAHF7bTfNWXzw3",
                    "display": "Liver, Len Txpq"
                },
                "episodeOfCare": [
                    {
                        "reference": "EpisodeOfCare/eDBWouZInJAfS7BYbJJtBfA3",
                        "type": "EpisodeOfCare",
                        "display": "Liver Episode (Transplanted  2/16/2010) - Transplant 1 "
                    }
                ],
                "period": {
                    "start": "2013-09-25",
                    "end": "2013-09-25"
                },
                "location": [
                    {
                        "location": {
                            "reference": "Location/e.zUbzUZH9WErlJkdM0-hMZY7Z6JkVK.ftghaWm0ZCLs3",
                            "display": "EMH Abdominal Transplant"
                        }
                    }
                ]
            },
            "search": {
                "mode": "match"
            }
        },
        {
            "link": [
                {
                    "relation": "self",
                    "url": "https://appmarket.epic.com/interconnect-amcurprd-oauth/api/FHIR/R4/Encounter/ePoqM61qqull-2c6.MtEpaA3"
                }
            ],
            "fullUrl": "https://appmarket.epic.com/interconnect-amcurprd-oauth/api/FHIR/R4/Encounter/ePoqM61qqull-2c6.MtEpaA3",
            "resource": {
                "resourceType": "Encounter",
                "id": "ePoqM61qqull-2c6.MtEpaA3",
                "identifier": [
                    {
                        "use": "usual",
                        "system": "urn:oid:1.2.840.114350.1.13.0.1.7.3.698084.8",
                        "value": "7254"
                    }
                ],
                "status": "in-progress",
                "class": {
                    "system": "urn:oid:1.2.840.114350.1.72.1.7.7.10.696784.13260",
                    "code": "13",
                    "display": "Support OP Encounter"
                },
                "type": [
                    {
                        "coding": [
                            {
                                "system": "urn:oid:1.2.840.114350.1.13.0.1.7.10.698084.30",
                                "code": "150",
                                "display": "Abstract"
                            }
                        ],
                        "text": "Abstract"
                    }
                ],
                "subject": {
                    "reference": "Patient/e-oM0jGCeUgAHF7bTfNWXzw3",
                    "display": "Liver, Len Txpq"
                },
                "episodeOfCare": [
                    {
                        "reference": "EpisodeOfCare/eDBWouZInJAfS7BYbJJtBfA3",
                        "type": "EpisodeOfCare",
                        "display": "Liver Episode (Transplanted  2/16/2010) - Transplant 1 "
                    }
                ],
                "period": {
                    "start": "2013-09-24",
                    "end": "2013-09-24"
                },
                "location": [
                    {
                        "location": {
                            "reference": "Location/e.zUbzUZH9WErlJkdM0-hMZY7Z6JkVK.ftghaWm0ZCLs3",
                            "display": "EMH Abdominal Transplant"
                        }
                    }
                ]
            },
            "search": {
                "mode": "match"
            }
        },
        {
            "link": [
                {
                    "relation": "self",
                    "url": "https://appmarket.epic.com/interconnect-amcurprd-oauth/api/FHIR/R4/Encounter/em7whVIIEzuJA6lvrFxHl2Q3"
                }
            ],
            "fullUrl": "https://appmarket.epic.com/interconnect-amcurprd-oauth/api/FHIR/R4/Encounter/em7whVIIEzuJA6lvrFxHl2Q3",
            "resource": {
                "resourceType": "Encounter",
                "id": "em7whVIIEzuJA6lvrFxHl2Q3",
                "identifier": [
                    {
                        "use": "usual",
                        "system": "urn:oid:1.2.840.114350.1.13.0.1.7.3.698084.8",
                        "value": "7255"
                    }
                ],
                "status": "finished",
                "class": {
                    "system": "urn:oid:1.2.840.114350.1.72.1.7.7.10.696784.13260",
                    "code": "13",
                    "display": "Support OP Encounter"
                },
                "type": [
                    {
                        "coding": [
                            {
                                "system": "urn:oid:1.2.840.114350.1.13.0.1.7.10.698084.30",
                                "code": "111",
                                "display": "Orders Only"
                            }
                        ],
                        "text": "Orders Only"
                    }
                ],
                "subject": {
                    "reference": "Patient/e-oM0jGCeUgAHF7bTfNWXzw3",
                    "display": "Liver, Len Txpq"
                },
                "period": {
                    "start": "2013-09-15",
                    "end": "2013-09-15"
                },
                "location": [
                    {
                        "location": {
                            "reference": "Location/e.zUbzUZH9WErlJkdM0-hMZY7Z6JkVK.ftghaWm0ZCLs3",
                            "display": "EMH Abdominal Transplant"
                        }
                    }
                ]
            },
            "search": {
                "mode": "match"
            }
        },
        {
            "link": [
                {
                    "relation": "self",
                    "url": "https://appmarket.epic.com/interconnect-amcurprd-oauth/api/FHIR/R4/Encounter/e2zwPgxelsUd.GgLkCS5hSg3"
                }
            ],
            "fullUrl": "https://appmarket.epic.com/interconnect-amcurprd-oauth/api/FHIR/R4/Encounter/e2zwPgxelsUd.GgLkCS5hSg3",
            "resource": {
                "resourceType": "Encounter",
                "id": "e2zwPgxelsUd.GgLkCS5hSg3",
                "identifier": [
                    {
                        "use": "usual",
                        "system": "urn:oid:1.2.840.114350.1.13.0.1.7.3.698084.8",
                        "value": "7256"
                    }
                ],
                "status": "finished",
                "class": {
                    "system": "urn:oid:1.2.840.114350.1.72.1.7.7.10.696784.13260",
                    "code": "13",
                    "display": "Support OP Encounter"
                },
                "type": [
                    {
                        "coding": [
                            {
                                "system": "urn:oid:1.2.840.114350.1.13.0.1.7.10.698084.30",
                                "code": "111",
                                "display": "Orders Only"
                            }
                        ],
                        "text": "Orders Only"
                    }
                ],
                "subject": {
                    "reference": "Patient/e-oM0jGCeUgAHF7bTfNWXzw3",
                    "display": "Liver, Len Txpq"
                },
                "episodeOfCare": [
                    {
                        "reference": "EpisodeOfCare/eDBWouZInJAfS7BYbJJtBfA3",
                        "type": "EpisodeOfCare",
                        "display": "Liver Episode (Transplanted  2/16/2010) - Transplant 1 "
                    }
                ],
                "period": {
                    "start": "2013-09-01",
                    "end": "2013-09-01"
                },
                "location": [
                    {
                        "location": {
                            "reference": "Location/e.zUbzUZH9WErlJkdM0-hMZY7Z6JkVK.ftghaWm0ZCLs3",
                            "display": "EMH Abdominal Transplant"
                        }
                    }
                ]
            },
            "search": {
                "mode": "match"
            }
        },
        {
            "link": [
                {
                    "relation": "self",
                    "url": "https://appmarket.epic.com/interconnect-amcurprd-oauth/api/FHIR/R4/Encounter/ePv0M6hm7LcZdL6Bjr8v68w3"
                }
            ],
            "fullUrl": "https://appmarket.epic.com/interconnect-amcurprd-oauth/api/FHIR/R4/Encounter/ePv0M6hm7LcZdL6Bjr8v68w3",
            "resource": {
                "resourceType": "Encounter",
                "id": "ePv0M6hm7LcZdL6Bjr8v68w3",
                "identifier": [
                    {
                        "use": "usual",
                        "system": "urn:oid:1.2.840.114350.1.13.0.1.7.3.698084.8",
                        "value": "7257"
                    }
                ],
                "status": "finished",
                "class": {
                    "system": "urn:oid:1.2.840.114350.1.72.1.7.7.10.696784.13260",
                    "code": "13",
                    "display": "Support OP Encounter"
                },
                "type": [
                    {
                        "coding": [
                            {
                                "system": "urn:oid:1.2.840.114350.1.13.0.1.7.10.698084.30",
                                "code": "111",
                                "display": "Orders Only"
                            }
                        ],
                        "text": "Orders Only"
                    }
                ],
                "subject": {
                    "reference": "Patient/e-oM0jGCeUgAHF7bTfNWXzw3",
                    "display": "Liver, Len Txpq"
                },
                "episodeOfCare": [
                    {
                        "reference": "EpisodeOfCare/eDBWouZInJAfS7BYbJJtBfA3",
                        "type": "EpisodeOfCare",
                        "display": "Liver Episode (Transplanted  2/16/2010) - Transplant 1 "
                    }
                ],
                "period": {
                    "start": "2013-08-03",
                    "end": "2013-08-03"
                },
                "location": [
                    {
                        "location": {
                            "reference": "Location/e.zUbzUZH9WErlJkdM0-hMZY7Z6JkVK.ftghaWm0ZCLs3",
                            "display": "EMH Abdominal Transplant"
                        }
                    }
                ]
            },
            "search": {
                "mode": "match"
            }
        },
        {
            "link": [
                {
                    "relation": "self",
                    "url": "https://appmarket.epic.com/interconnect-amcurprd-oauth/api/FHIR/R4/Encounter/eC89nUmi4kZtwQK7VYh5K.Q3"
                }
            ],
            "fullUrl": "https://appmarket.epic.com/interconnect-amcurprd-oauth/api/FHIR/R4/Encounter/eC89nUmi4kZtwQK7VYh5K.Q3",
            "resource": {
                "resourceType": "Encounter",
                "id": "eC89nUmi4kZtwQK7VYh5K.Q3",
                "identifier": [
                    {
                        "use": "usual",
                        "system": "urn:oid:1.2.840.114350.1.13.0.1.7.3.698084.8",
                        "value": "7258"
                    }
                ],
                "status": "finished",
                "class": {
                    "system": "urn:oid:1.2.840.114350.1.72.1.7.7.10.696784.13260",
                    "code": "13",
                    "display": "Support OP Encounter"
                },
                "type": [
                    {
                        "coding": [
                            {
                                "system": "urn:oid:1.2.840.114350.1.13.0.1.7.10.698084.30",
                                "code": "111",
                                "display": "Orders Only"
                            }
                        ],
                        "text": "Orders Only"
                    }
                ],
                "subject": {
                    "reference": "Patient/e-oM0jGCeUgAHF7bTfNWXzw3",
                    "display": "Liver, Len Txpq"
                },
                "episodeOfCare": [
                    {
                        "reference": "EpisodeOfCare/eDBWouZInJAfS7BYbJJtBfA3",
                        "type": "EpisodeOfCare",
                        "display": "Liver Episode (Transplanted  2/16/2010) - Transplant 1 "
                    }
                ],
                "period": {
                    "start": "2013-07-16",
                    "end": "2013-07-16"
                },
                "location": [
                    {
                        "location": {
                            "reference": "Location/e.zUbzUZH9WErlJkdM0-hMZY7Z6JkVK.ftghaWm0ZCLs3",
                            "display": "EMH Abdominal Transplant"
                        }
                    }
                ]
            },
            "search": {
                "mode": "match"
            }
        },
        {
            "link": [
                {
                    "relation": "self",
                    "url": "https://appmarket.epic.com/interconnect-amcurprd-oauth/api/FHIR/R4/Encounter/eRfy4zaL3Qse2mE0oOImU0A3"
                }
            ],
            "fullUrl": "https://appmarket.epic.com/interconnect-amcurprd-oauth/api/FHIR/R4/Encounter/eRfy4zaL3Qse2mE0oOImU0A3",
            "resource": {
                "resourceType": "Encounter",
                "id": "eRfy4zaL3Qse2mE0oOImU0A3",
                "identifier": [
                    {
                        "use": "usual",
                        "system": "urn:oid:1.2.840.114350.1.13.0.1.7.3.698084.8",
                        "value": "7261"
                    }
                ],
                "status": "finished",
                "class": {
                    "system": "urn:oid:1.2.840.114350.1.72.1.7.7.10.696784.13260",
                    "code": "13",
                    "display": "Support OP Encounter"
                },
                "type": [
                    {
                        "coding": [
                            {
                                "system": "urn:oid:1.2.840.114350.1.13.0.1.7.10.698084.30",
                                "code": "111",
                                "display": "Orders Only"
                            }
                        ],
                        "text": "Orders Only"
                    }
                ],
                "subject": {
                    "reference": "Patient/e-oM0jGCeUgAHF7bTfNWXzw3",
                    "display": "Liver, Len Txpq"
                },
                "episodeOfCare": [
                    {
                        "reference": "EpisodeOfCare/eDBWouZInJAfS7BYbJJtBfA3",
                        "type": "EpisodeOfCare",
                        "display": "Liver Episode (Transplanted  2/16/2010) - Transplant 1 "
                    }
                ],
                "period": {
                    "start": "2013-06-29",
                    "end": "2013-06-29"
                },
                "location": [
                    {
                        "location": {
                            "reference": "Location/e.zUbzUZH9WErlJkdM0-hMZY7Z6JkVK.ftghaWm0ZCLs3",
                            "display": "EMH Abdominal Transplant"
                        }
                    }
                ]
            },
            "search": {
                "mode": "match"
            }
        },
        {
            "link": [
                {
                    "relation": "self",
                    "url": "https://appmarket.epic.com/interconnect-amcurprd-oauth/api/FHIR/R4/Encounter/e.GMswHBPg4bbAtnwF48NDg3"
                }
            ],
            "fullUrl": "https://appmarket.epic.com/interconnect-amcurprd-oauth/api/FHIR/R4/Encounter/e.GMswHBPg4bbAtnwF48NDg3",
            "resource": {
                "resourceType": "Encounter",
                "id": "e.GMswHBPg4bbAtnwF48NDg3",
                "identifier": [
                    {
                        "use": "usual",
                        "system": "urn:oid:1.2.840.114350.1.13.0.1.7.3.698084.8",
                        "value": "7262"
                    }
                ],
                "status": "finished",
                "class": {
                    "system": "urn:oid:1.2.840.114350.1.72.1.7.7.10.696784.13260",
                    "code": "13",
                    "display": "Support OP Encounter"
                },
                "type": [
                    {
                        "coding": [
                            {
                                "system": "urn:oid:1.2.840.114350.1.13.0.1.7.10.698084.30",
                                "code": "111",
                                "display": "Orders Only"
                            }
                        ],
                        "text": "Orders Only"
                    }
                ],
                "subject": {
                    "reference": "Patient/e-oM0jGCeUgAHF7bTfNWXzw3",
                    "display": "Liver, Len Txpq"
                },
                "episodeOfCare": [
                    {
                        "reference": "EpisodeOfCare/eDBWouZInJAfS7BYbJJtBfA3",
                        "type": "EpisodeOfCare",
                        "display": "Liver Episode (Transplanted  2/16/2010) - Transplant 1 "
                    }
                ],
                "period": {
                    "start": "2013-06-24",
                    "end": "2013-06-24"
                },
                "location": [
                    {
                        "location": {
                            "reference": "Location/e.zUbzUZH9WErlJkdM0-hMZY7Z6JkVK.ftghaWm0ZCLs3",
                            "display": "EMH Abdominal Transplant"
                        }
                    }
                ]
            },
            "search": {
                "mode": "match"
            }
        },
        {
            "link": [
                {
                    "relation": "self",
                    "url": "https://appmarket.epic.com/interconnect-amcurprd-oauth/api/FHIR/R4/Encounter/ei15SULjrM3flUVU91LZPdg3"
                }
            ],
            "fullUrl": "https://appmarket.epic.com/interconnect-amcurprd-oauth/api/FHIR/R4/Encounter/ei15SULjrM3flUVU91LZPdg3",
            "resource": {
                "resourceType": "Encounter",
                "id": "ei15SULjrM3flUVU91LZPdg3",
                "identifier": [
                    {
                        "use": "usual",
                        "system": "urn:oid:1.2.840.114350.1.13.0.1.7.3.698084.8",
                        "value": "7263"
                    }
                ],
                "status": "finished",
                "class": {
                    "system": "urn:oid:1.2.840.114350.1.72.1.7.7.10.696784.13260",
                    "code": "13",
                    "display": "Support OP Encounter"
                },
                "type": [
                    {
                        "coding": [
                            {
                                "system": "urn:oid:1.2.840.114350.1.13.0.1.7.10.698084.30",
                                "code": "111",
                                "display": "Orders Only"
                            }
                        ],
                        "text": "Orders Only"
                    }
                ],
                "subject": {
                    "reference": "Patient/e-oM0jGCeUgAHF7bTfNWXzw3",
                    "display": "Liver, Len Txpq"
                },
                "episodeOfCare": [
                    {
                        "reference": "EpisodeOfCare/eDBWouZInJAfS7BYbJJtBfA3",
                        "type": "EpisodeOfCare",
                        "display": "Liver Episode (Transplanted  2/16/2010) - Transplant 1 "
                    }
                ],
                "period": {
                    "start": "2013-06-21",
                    "end": "2013-06-21"
                },
                "location": [
                    {
                        "location": {
                            "reference": "Location/e.zUbzUZH9WErlJkdM0-hMZY7Z6JkVK.ftghaWm0ZCLs3",
                            "display": "EMH Abdominal Transplant"
                        }
                    }
                ]
            },
            "search": {
                "mode": "match"
            }
        },
        {
            "link": [
                {
                    "relation": "self",
                    "url": "https://appmarket.epic.com/interconnect-amcurprd-oauth/api/FHIR/R4/Encounter/eSFTCh2gQzezuHUIgd7bbGA3"
                }
            ],
            "fullUrl": "https://appmarket.epic.com/interconnect-amcurprd-oauth/api/FHIR/R4/Encounter/eSFTCh2gQzezuHUIgd7bbGA3",
            "resource": {
                "resourceType": "Encounter",
                "id": "eSFTCh2gQzezuHUIgd7bbGA3",
                "identifier": [
                    {
                        "use": "usual",
                        "system": "urn:oid:1.2.840.114350.1.13.0.1.7.3.698084.8",
                        "value": "7265"
                    }
                ],
                "status": "finished",
                "class": {
                    "system": "urn:oid:1.2.840.114350.1.72.1.7.7.10.696784.13260",
                    "code": "13",
                    "display": "Support OP Encounter"
                },
                "type": [
                    {
                        "coding": [
                            {
                                "system": "urn:oid:1.2.840.114350.1.13.0.1.7.10.698084.30",
                                "code": "111",
                                "display": "Orders Only"
                            }
                        ],
                        "text": "Orders Only"
                    }
                ],
                "subject": {
                    "reference": "Patient/e-oM0jGCeUgAHF7bTfNWXzw3",
                    "display": "Liver, Len Txpq"
                },
                "episodeOfCare": [
                    {
                        "reference": "EpisodeOfCare/eDBWouZInJAfS7BYbJJtBfA3",
                        "type": "EpisodeOfCare",
                        "display": "Liver Episode (Transplanted  2/16/2010) - Transplant 1 "
                    }
                ],
                "period": {
                    "start": "2013-06-17",
                    "end": "2013-06-17"
                },
                "location": [
                    {
                        "location": {
                            "reference": "Location/e.zUbzUZH9WErlJkdM0-hMZY7Z6JkVK.ftghaWm0ZCLs3",
                            "display": "EMH Abdominal Transplant"
                        }
                    }
                ]
            },
            "search": {
                "mode": "match"
            }
        },
        {
            "link": [
                {
                    "relation": "self",
                    "url": "https://appmarket.epic.com/interconnect-amcurprd-oauth/api/FHIR/R4/Encounter/eXGofiuuakcNtXH7kmHzSkg3"
                }
            ],
            "fullUrl": "https://appmarket.epic.com/interconnect-amcurprd-oauth/api/FHIR/R4/Encounter/eXGofiuuakcNtXH7kmHzSkg3",
            "resource": {
                "resourceType": "Encounter",
                "id": "eXGofiuuakcNtXH7kmHzSkg3",
                "identifier": [
                    {
                        "use": "usual",
                        "system": "urn:oid:1.2.840.114350.1.13.0.1.7.3.698084.8",
                        "value": "7266"
                    }
                ],
                "status": "finished",
                "class": {
                    "system": "urn:oid:1.2.840.114350.1.72.1.7.7.10.696784.13260",
                    "code": "13",
                    "display": "Support OP Encounter"
                },
                "type": [
                    {
                        "coding": [
                            {
                                "system": "urn:oid:1.2.840.114350.1.13.0.1.7.10.698084.30",
                                "code": "111",
                                "display": "Orders Only"
                            }
                        ],
                        "text": "Orders Only"
                    }
                ],
                "subject": {
                    "reference": "Patient/e-oM0jGCeUgAHF7bTfNWXzw3",
                    "display": "Liver, Len Txpq"
                },
                "episodeOfCare": [
                    {
                        "reference": "EpisodeOfCare/eDBWouZInJAfS7BYbJJtBfA3",
                        "type": "EpisodeOfCare",
                        "display": "Liver Episode (Transplanted  2/16/2010) - Transplant 1 "
                    }
                ],
                "period": {
                    "start": "2013-06-16",
                    "end": "2013-06-16"
                },
                "location": [
                    {
                        "location": {
                            "reference": "Location/e.zUbzUZH9WErlJkdM0-hMZY7Z6JkVK.ftghaWm0ZCLs3",
                            "display": "EMH Abdominal Transplant"
                        }
                    }
                ]
            },
            "search": {
                "mode": "match"
            }
        },
        {
            "link": [
                {
                    "relation": "self",
                    "url": "https://appmarket.epic.com/interconnect-amcurprd-oauth/api/FHIR/R4/Encounter/eOoAf4-fuzA15VoiopjXrxg3"
                }
            ],
            "fullUrl": "https://appmarket.epic.com/interconnect-amcurprd-oauth/api/FHIR/R4/Encounter/eOoAf4-fuzA15VoiopjXrxg3",
            "resource": {
                "resourceType": "Encounter",
                "id": "eOoAf4-fuzA15VoiopjXrxg3",
                "identifier": [
                    {
                        "use": "usual",
                        "system": "urn:oid:1.2.840.114350.1.13.0.1.7.3.698084.8",
                        "value": "7268"
                    }
                ],
                "status": "in-progress",
                "class": {
                    "system": "urn:oid:1.2.840.114350.1.72.1.7.7.10.696784.13260",
                    "code": "13",
                    "display": "Support OP Encounter"
                },
                "type": [
                    {
                        "coding": [
                            {
                                "system": "urn:oid:1.2.840.114350.1.13.0.1.7.10.698084.30",
                                "code": "150",
                                "display": "Abstract"
                            }
                        ],
                        "text": "Abstract"
                    }
                ],
                "subject": {
                    "reference": "Patient/e-oM0jGCeUgAHF7bTfNWXzw3",
                    "display": "Liver, Len Txpq"
                },
                "episodeOfCare": [
                    {
                        "reference": "EpisodeOfCare/eDBWouZInJAfS7BYbJJtBfA3",
                        "type": "EpisodeOfCare",
                        "display": "Liver Episode (Transplanted  2/16/2010) - Transplant 1 "
                    }
                ],
                "period": {
                    "start": "2013-04-25",
                    "end": "2013-04-25"
                },
                "location": [
                    {
                        "location": {
                            "reference": "Location/e.zUbzUZH9WErlJkdM0-hMZY7Z6JkVK.ftghaWm0ZCLs3",
                            "display": "EMH Abdominal Transplant"
                        }
                    }
                ]
            },
            "search": {
                "mode": "match"
            }
        },
        {
            "link": [
                {
                    "relation": "self",
                    "url": "https://appmarket.epic.com/interconnect-amcurprd-oauth/api/FHIR/R4/Encounter/enJDmeYzTU5z2IJ6.Laa4hw3"
                }
            ],
            "fullUrl": "https://appmarket.epic.com/interconnect-amcurprd-oauth/api/FHIR/R4/Encounter/enJDmeYzTU5z2IJ6.Laa4hw3",
            "resource": {
                "resourceType": "Encounter",
                "id": "enJDmeYzTU5z2IJ6.Laa4hw3",
                "identifier": [
                    {
                        "use": "usual",
                        "system": "urn:oid:1.2.840.114350.1.13.0.1.7.3.698084.8",
                        "value": "7269"
                    }
                ],
                "status": "finished",
                "class": {
                    "system": "urn:oid:1.2.840.114350.1.72.1.7.7.10.696784.13260",
                    "code": "13",
                    "display": "Support OP Encounter"
                },
                "type": [
                    {
                        "coding": [
                            {
                                "system": "urn:oid:1.2.840.114350.1.13.0.1.7.10.698084.30",
                                "code": "111",
                                "display": "Orders Only"
                            }
                        ],
                        "text": "Orders Only"
                    }
                ],
                "subject": {
                    "reference": "Patient/e-oM0jGCeUgAHF7bTfNWXzw3",
                    "display": "Liver, Len Txpq"
                },
                "episodeOfCare": [
                    {
                        "reference": "EpisodeOfCare/eDBWouZInJAfS7BYbJJtBfA3",
                        "type": "EpisodeOfCare",
                        "display": "Liver Episode (Transplanted  2/16/2010) - Transplant 1 "
                    }
                ],
                "period": {
                    "start": "2013-04-12",
                    "end": "2013-04-12"
                },
                "location": [
                    {
                        "location": {
                            "reference": "Location/e.zUbzUZH9WErlJkdM0-hMZY7Z6JkVK.ftghaWm0ZCLs3",
                            "display": "EMH Abdominal Transplant"
                        }
                    }
                ]
            },
            "search": {
                "mode": "match"
            }
        },
        {
            "link": [
                {
                    "relation": "self",
                    "url": "https://appmarket.epic.com/interconnect-amcurprd-oauth/api/FHIR/R4/Encounter/evSq-iAJMZX6uAz0-azgIRA3"
                }
            ],
            "fullUrl": "https://appmarket.epic.com/interconnect-amcurprd-oauth/api/FHIR/R4/Encounter/evSq-iAJMZX6uAz0-azgIRA3",
            "resource": {
                "resourceType": "Encounter",
                "id": "evSq-iAJMZX6uAz0-azgIRA3",
                "identifier": [
                    {
                        "use": "usual",
                        "system": "urn:oid:1.2.840.114350.1.13.0.1.7.3.698084.8",
                        "value": "7271"
                    }
                ],
                "status": "in-progress",
                "class": {
                    "system": "urn:oid:1.2.840.114350.1.72.1.7.7.10.696784.13260",
                    "code": "13",
                    "display": "Support OP Encounter"
                },
                "type": [
                    {
                        "coding": [
                            {
                                "system": "urn:oid:1.2.840.114350.1.13.0.1.7.10.698084.30",
                                "code": "150",
                                "display": "Abstract"
                            }
                        ],
                        "text": "Abstract"
                    }
                ],
                "subject": {
                    "reference": "Patient/e-oM0jGCeUgAHF7bTfNWXzw3",
                    "display": "Liver, Len Txpq"
                },
                "episodeOfCare": [
                    {
                        "reference": "EpisodeOfCare/eDBWouZInJAfS7BYbJJtBfA3",
                        "type": "EpisodeOfCare",
                        "display": "Liver Episode (Transplanted  2/16/2010) - Transplant 1 "
                    }
                ],
                "period": {
                    "start": "2013-04-07",
                    "end": "2013-04-07"
                },
                "location": [
                    {
                        "location": {
                            "reference": "Location/e.zUbzUZH9WErlJkdM0-hMZY7Z6JkVK.ftghaWm0ZCLs3",
                            "display": "EMH Abdominal Transplant"
                        }
                    }
                ]
            },
            "search": {
                "mode": "match"
            }
        },
        {
            "link": [
                {
                    "relation": "self",
                    "url": "https://appmarket.epic.com/interconnect-amcurprd-oauth/api/FHIR/R4/Encounter/ekgV57UFSTWbu.GYguOz7mw3"
                }
            ],
            "fullUrl": "https://appmarket.epic.com/interconnect-amcurprd-oauth/api/FHIR/R4/Encounter/ekgV57UFSTWbu.GYguOz7mw3",
            "resource": {
                "resourceType": "Encounter",
                "id": "ekgV57UFSTWbu.GYguOz7mw3",
                "identifier": [
                    {
                        "use": "usual",
                        "system": "urn:oid:1.2.840.114350.1.13.0.1.7.3.698084.8",
                        "value": "7273"
                    }
                ],
                "status": "unknown",
                "class": {
                    "system": "urn:oid:1.2.840.114350.1.72.1.7.7.10.696784.13260",
                    "code": "13",
                    "display": "Support OP Encounter"
                },
                "subject": {
                    "reference": "Patient/e-oM0jGCeUgAHF7bTfNWXzw3",
                    "display": "Liver, Len Txpq"
                },
                "period": {
                    "start": "2012-01-13",
                    "end": "2012-01-13"
                }
            },
            "search": {
                "mode": "match"
            }
        },
        {
            "link": [
                {
                    "relation": "self",
                    "url": "https://appmarket.epic.com/interconnect-amcurprd-oauth/api/FHIR/R4/Encounter/eIgTOKJICORbhCzNSy52v4A3"
                }
            ],
            "fullUrl": "https://appmarket.epic.com/interconnect-amcurprd-oauth/api/FHIR/R4/Encounter/eIgTOKJICORbhCzNSy52v4A3",
            "resource": {
                "resourceType": "Encounter",
                "id": "eIgTOKJICORbhCzNSy52v4A3",
                "identifier": [
                    {
                        "use": "usual",
                        "system": "urn:oid:1.2.840.114350.1.13.0.1.7.3.698084.8",
                        "value": "7274"
                    }
                ],
                "status": "unknown",
                "class": {
                    "system": "urn:oid:1.2.840.114350.1.72.1.7.7.10.696784.13260",
                    "code": "13",
                    "display": "Support OP Encounter"
                },
                "subject": {
                    "reference": "Patient/e-oM0jGCeUgAHF7bTfNWXzw3",
                    "display": "Liver, Len Txpq"
                },
                "period": {
                    "start": "2012-01-03",
                    "end": "2012-01-03"
                }
            },
            "search": {
                "mode": "match"
            }
        },
        {
            "link": [
                {
                    "relation": "self",
                    "url": "https://appmarket.epic.com/interconnect-amcurprd-oauth/api/FHIR/R4/Encounter/edgozyw.cJQItEswqozrV1g3"
                }
            ],
            "fullUrl": "https://appmarket.epic.com/interconnect-amcurprd-oauth/api/FHIR/R4/Encounter/edgozyw.cJQItEswqozrV1g3",
            "resource": {
                "resourceType": "Encounter",
                "id": "edgozyw.cJQItEswqozrV1g3",
                "identifier": [
                    {
                        "use": "usual",
                        "system": "urn:oid:1.2.840.114350.1.13.0.1.7.3.698084.8",
                        "value": "7275"
                    }
                ],
                "status": "unknown",
                "class": {
                    "system": "urn:oid:1.2.840.114350.1.72.1.7.7.10.696784.13260",
                    "code": "13",
                    "display": "Support OP Encounter"
                },
                "subject": {
                    "reference": "Patient/e-oM0jGCeUgAHF7bTfNWXzw3",
                    "display": "Liver, Len Txpq"
                },
                "period": {
                    "start": "2012-01-03",
                    "end": "2012-01-03"
                }
            },
            "search": {
                "mode": "match"
            }
        },
        {
            "link": [
                {
                    "relation": "self",
                    "url": "https://appmarket.epic.com/interconnect-amcurprd-oauth/api/FHIR/R4/Encounter/evBslbud.Puca.zruSP.tLg3"
                }
            ],
            "fullUrl": "https://appmarket.epic.com/interconnect-amcurprd-oauth/api/FHIR/R4/Encounter/evBslbud.Puca.zruSP.tLg3",
            "resource": {
                "resourceType": "Encounter",
                "id": "evBslbud.Puca.zruSP.tLg3",
                "identifier": [
                    {
                        "use": "usual",
                        "system": "urn:oid:1.2.840.114350.1.13.0.1.7.3.698084.8",
                        "value": "7276"
                    }
                ],
                "status": "unknown",
                "class": {
                    "system": "urn:oid:1.2.840.114350.1.72.1.7.7.10.696784.13260",
                    "code": "13",
                    "display": "Support OP Encounter"
                },
                "subject": {
                    "reference": "Patient/e-oM0jGCeUgAHF7bTfNWXzw3",
                    "display": "Liver, Len Txpq"
                },
                "period": {
                    "start": "2012-01-02",
                    "end": "2012-01-02"
                }
            },
            "search": {
                "mode": "match"
            }
        },
        {
            "link": [
                {
                    "relation": "self",
                    "url": "https://appmarket.epic.com/interconnect-amcurprd-oauth/api/FHIR/R4/Encounter/eTpp3seiSYev3oKfOLelqFw3"
                }
            ],
            "fullUrl": "https://appmarket.epic.com/interconnect-amcurprd-oauth/api/FHIR/R4/Encounter/eTpp3seiSYev3oKfOLelqFw3",
            "resource": {
                "resourceType": "Encounter",
                "id": "eTpp3seiSYev3oKfOLelqFw3",
                "identifier": [
                    {
                        "use": "usual",
                        "system": "urn:oid:1.2.840.114350.1.13.0.1.7.3.698084.8",
                        "value": "7277"
                    }
                ],
                "status": "unknown",
                "class": {
                    "system": "urn:oid:1.2.840.114350.1.72.1.7.7.10.696784.13260",
                    "code": "13",
                    "display": "Support OP Encounter"
                },
                "subject": {
                    "reference": "Patient/e-oM0jGCeUgAHF7bTfNWXzw3",
                    "display": "Liver, Len Txpq"
                },
                "period": {
                    "start": "2012-01-02",
                    "end": "2012-01-02"
                }
            },
            "search": {
                "mode": "match"
            }
        },
        {
            "link": [
                {
                    "relation": "self",
                    "url": "https://appmarket.epic.com/interconnect-amcurprd-oauth/api/FHIR/R4/Encounter/eaCk48N5GOyxPELjmvq.tYQ3"
                }
            ],
            "fullUrl": "https://appmarket.epic.com/interconnect-amcurprd-oauth/api/FHIR/R4/Encounter/eaCk48N5GOyxPELjmvq.tYQ3",
            "resource": {
                "resourceType": "Encounter",
                "id": "eaCk48N5GOyxPELjmvq.tYQ3",
                "identifier": [
                    {
                        "use": "usual",
                        "system": "urn:oid:1.2.840.114350.1.13.0.1.7.3.698084.8",
                        "value": "7278"
                    }
                ],
                "status": "unknown",
                "class": {
                    "system": "urn:oid:1.2.840.114350.1.72.1.7.7.10.696784.13260",
                    "code": "13",
                    "display": "Support OP Encounter"
                },
                "subject": {
                    "reference": "Patient/e-oM0jGCeUgAHF7bTfNWXzw3",
                    "display": "Liver, Len Txpq"
                },
                "period": {
                    "start": "2011-12-24",
                    "end": "2011-12-24"
                }
            },
            "search": {
                "mode": "match"
            }
        },
        {
            "link": [
                {
                    "relation": "self",
                    "url": "https://appmarket.epic.com/interconnect-amcurprd-oauth/api/FHIR/R4/Encounter/esKrUuIfRfq6lRQUOP4vWnQ3"
                }
            ],
            "fullUrl": "https://appmarket.epic.com/interconnect-amcurprd-oauth/api/FHIR/R4/Encounter/esKrUuIfRfq6lRQUOP4vWnQ3",
            "resource": {
                "resourceType": "Encounter",
                "id": "esKrUuIfRfq6lRQUOP4vWnQ3",
                "identifier": [
                    {
                        "use": "usual",
                        "system": "urn:oid:1.2.840.114350.1.13.0.1.7.3.698084.8",
                        "value": "7279"
                    }
                ],
                "status": "unknown",
                "class": {
                    "system": "urn:oid:1.2.840.114350.1.72.1.7.7.10.696784.13260",
                    "code": "13",
                    "display": "Support OP Encounter"
                },
                "subject": {
                    "reference": "Patient/e-oM0jGCeUgAHF7bTfNWXzw3",
                    "display": "Liver, Len Txpq"
                },
                "period": {
                    "start": "2011-12-10",
                    "end": "2011-12-10"
                }
            },
            "search": {
                "mode": "match"
            }
        },
        {
            "link": [
                {
                    "relation": "self",
                    "url": "https://appmarket.epic.com/interconnect-amcurprd-oauth/api/FHIR/R4/Encounter/edvcQS2L6DuRS3kxF1UrcNQ3"
                }
            ],
            "fullUrl": "https://appmarket.epic.com/interconnect-amcurprd-oauth/api/FHIR/R4/Encounter/edvcQS2L6DuRS3kxF1UrcNQ3",
            "resource": {
                "resourceType": "Encounter",
                "id": "edvcQS2L6DuRS3kxF1UrcNQ3",
                "identifier": [
                    {
                        "use": "usual",
                        "system": "urn:oid:1.2.840.114350.1.13.0.1.7.3.698084.8",
                        "value": "7280"
                    }
                ],
                "status": "unknown",
                "class": {
                    "system": "urn:oid:1.2.840.114350.1.72.1.7.7.10.696784.13260",
                    "code": "13",
                    "display": "Support OP Encounter"
                },
                "subject": {
                    "reference": "Patient/e-oM0jGCeUgAHF7bTfNWXzw3",
                    "display": "Liver, Len Txpq"
                },
                "period": {
                    "start": "2011-11-11",
                    "end": "2011-11-11"
                }
            },
            "search": {
                "mode": "match"
            }
        },
        {
            "link": [
                {
                    "relation": "self",
                    "url": "https://appmarket.epic.com/interconnect-amcurprd-oauth/api/FHIR/R4/Encounter/eMBiUEghTJI9AkdVjt45Jxg3"
                }
            ],
            "fullUrl": "https://appmarket.epic.com/interconnect-amcurprd-oauth/api/FHIR/R4/Encounter/eMBiUEghTJI9AkdVjt45Jxg3",
            "resource": {
                "resourceType": "Encounter",
                "id": "eMBiUEghTJI9AkdVjt45Jxg3",
                "identifier": [
                    {
                        "use": "usual",
                        "system": "urn:oid:1.2.840.114350.1.13.0.1.7.3.698084.8",
                        "value": "7281"
                    }
                ],
                "status": "unknown",
                "class": {
                    "system": "urn:oid:1.2.840.114350.1.72.1.7.7.10.696784.13260",
                    "code": "13",
                    "display": "Support OP Encounter"
                },
                "subject": {
                    "reference": "Patient/e-oM0jGCeUgAHF7bTfNWXzw3",
                    "display": "Liver, Len Txpq"
                },
                "period": {
                    "start": "2011-10-24",
                    "end": "2011-10-24"
                }
            },
            "search": {
                "mode": "match"
            }
        },
        {
            "link": [
                {
                    "relation": "self",
                    "url": "https://appmarket.epic.com/interconnect-amcurprd-oauth/api/FHIR/R4/Encounter/eyQw3ItSFdGAmvjrbHZjpVA3"
                }
            ],
            "fullUrl": "https://appmarket.epic.com/interconnect-amcurprd-oauth/api/FHIR/R4/Encounter/eyQw3ItSFdGAmvjrbHZjpVA3",
            "resource": {
                "resourceType": "Encounter",
                "id": "eyQw3ItSFdGAmvjrbHZjpVA3",
                "identifier": [
                    {
                        "use": "usual",
                        "system": "urn:oid:1.2.840.114350.1.13.0.1.7.3.698084.8",
                        "value": "7282"
                    }
                ],
                "status": "unknown",
                "class": {
                    "system": "urn:oid:1.2.840.114350.1.72.1.7.7.10.696784.13260",
                    "code": "13",
                    "display": "Support OP Encounter"
                },
                "subject": {
                    "reference": "Patient/e-oM0jGCeUgAHF7bTfNWXzw3",
                    "display": "Liver, Len Txpq"
                },
                "period": {
                    "start": "2011-10-14",
                    "end": "2011-10-14"
                }
            },
            "search": {
                "mode": "match"
            }
        },
        {
            "link": [
                {
                    "relation": "self",
                    "url": "https://appmarket.epic.com/interconnect-amcurprd-oauth/api/FHIR/R4/Encounter/e7Qs3wJswoj51lkHhYpPgpw3"
                }
            ],
            "fullUrl": "https://appmarket.epic.com/interconnect-amcurprd-oauth/api/FHIR/R4/Encounter/e7Qs3wJswoj51lkHhYpPgpw3",
            "resource": {
                "resourceType": "Encounter",
                "id": "e7Qs3wJswoj51lkHhYpPgpw3",
                "identifier": [
                    {
                        "use": "usual",
                        "system": "urn:oid:1.2.840.114350.1.13.0.1.7.3.698084.8",
                        "value": "7283"
                    }
                ],
                "status": "unknown",
                "class": {
                    "system": "urn:oid:1.2.840.114350.1.72.1.7.7.10.696784.13260",
                    "code": "13",
                    "display": "Support OP Encounter"
                },
                "subject": {
                    "reference": "Patient/e-oM0jGCeUgAHF7bTfNWXzw3",
                    "display": "Liver, Len Txpq"
                },
                "period": {
                    "start": "2011-10-14",
                    "end": "2011-10-14"
                }
            },
            "search": {
                "mode": "match"
            }
        },
        {
            "link": [
                {
                    "relation": "self",
                    "url": "https://appmarket.epic.com/interconnect-amcurprd-oauth/api/FHIR/R4/Encounter/epzn181QCZ5wpw3W6tKIfRQ3"
                }
            ],
            "fullUrl": "https://appmarket.epic.com/interconnect-amcurprd-oauth/api/FHIR/R4/Encounter/epzn181QCZ5wpw3W6tKIfRQ3",
            "resource": {
                "resourceType": "Encounter",
                "id": "epzn181QCZ5wpw3W6tKIfRQ3",
                "identifier": [
                    {
                        "use": "usual",
                        "system": "urn:oid:1.2.840.114350.1.13.0.1.7.3.698084.8",
                        "value": "7284"
                    }
                ],
                "status": "unknown",
                "class": {
                    "system": "urn:oid:1.2.840.114350.1.72.1.7.7.10.696784.13260",
                    "code": "13",
                    "display": "Support OP Encounter"
                },
                "subject": {
                    "reference": "Patient/e-oM0jGCeUgAHF7bTfNWXzw3",
                    "display": "Liver, Len Txpq"
                },
                "period": {
                    "start": "2011-10-07",
                    "end": "2011-10-07"
                }
            },
            "search": {
                "mode": "match"
            }
        },
        {
            "link": [
                {
                    "relation": "self",
                    "url": "https://appmarket.epic.com/interconnect-amcurprd-oauth/api/FHIR/R4/Encounter/e8Bcx443N9PloVvuBR3D.yg3"
                }
            ],
            "fullUrl": "https://appmarket.epic.com/interconnect-amcurprd-oauth/api/FHIR/R4/Encounter/e8Bcx443N9PloVvuBR3D.yg3",
            "resource": {
                "resourceType": "Encounter",
                "id": "e8Bcx443N9PloVvuBR3D.yg3",
                "identifier": [
                    {
                        "use": "usual",
                        "system": "urn:oid:1.2.840.114350.1.13.0.1.7.3.698084.8",
                        "value": "7285"
                    }
                ],
                "status": "unknown",
                "class": {
                    "system": "urn:oid:1.2.840.114350.1.72.1.7.7.10.696784.13260",
                    "code": "13",
                    "display": "Support OP Encounter"
                },
                "subject": {
                    "reference": "Patient/e-oM0jGCeUgAHF7bTfNWXzw3",
                    "display": "Liver, Len Txpq"
                },
                "period": {
                    "start": "2011-10-02",
                    "end": "2011-10-02"
                }
            },
            "search": {
                "mode": "match"
            }
        },
        {
            "link": [
                {
                    "relation": "self",
                    "url": "https://appmarket.epic.com/interconnect-amcurprd-oauth/api/FHIR/R4/Encounter/e6ZGzBxM0ulTrKHFgDVXWkw3"
                }
            ],
            "fullUrl": "https://appmarket.epic.com/interconnect-amcurprd-oauth/api/FHIR/R4/Encounter/e6ZGzBxM0ulTrKHFgDVXWkw3",
            "resource": {
                "resourceType": "Encounter",
                "id": "e6ZGzBxM0ulTrKHFgDVXWkw3",
                "identifier": [
                    {
                        "use": "usual",
                        "system": "urn:oid:1.2.840.114350.1.13.0.1.7.3.698084.8",
                        "value": "7286"
                    }
                ],
                "status": "unknown",
                "class": {
                    "system": "urn:oid:1.2.840.114350.1.72.1.7.7.10.696784.13260",
                    "code": "13",
                    "display": "Support OP Encounter"
                },
                "subject": {
                    "reference": "Patient/e-oM0jGCeUgAHF7bTfNWXzw3",
                    "display": "Liver, Len Txpq"
                },
                "period": {
                    "start": "2011-09-29",
                    "end": "2011-09-29"
                }
            },
            "search": {
                "mode": "match"
            }
        },
        {
            "link": [
                {
                    "relation": "self",
                    "url": "https://appmarket.epic.com/interconnect-amcurprd-oauth/api/FHIR/R4/Encounter/esb2CGHqXILBCdJD58wSgRg3"
                }
            ],
            "fullUrl": "https://appmarket.epic.com/interconnect-amcurprd-oauth/api/FHIR/R4/Encounter/esb2CGHqXILBCdJD58wSgRg3",
            "resource": {
                "resourceType": "Encounter",
                "id": "esb2CGHqXILBCdJD58wSgRg3",
                "identifier": [
                    {
                        "use": "usual",
                        "system": "urn:oid:1.2.840.114350.1.13.0.1.7.3.698084.8",
                        "value": "7287"
                    }
                ],
                "status": "unknown",
                "class": {
                    "system": "urn:oid:1.2.840.114350.1.72.1.7.7.10.696784.13260",
                    "code": "13",
                    "display": "Support OP Encounter"
                },
                "subject": {
                    "reference": "Patient/e-oM0jGCeUgAHF7bTfNWXzw3",
                    "display": "Liver, Len Txpq"
                },
                "period": {
                    "start": "2011-09-25",
                    "end": "2011-09-25"
                }
            },
            "search": {
                "mode": "match"
            }
        },
        {
            "link": [
                {
                    "relation": "self",
                    "url": "https://appmarket.epic.com/interconnect-amcurprd-oauth/api/FHIR/R4/Encounter/eJn63m6nC0ARyNGVmpuFPcQ3"
                }
            ],
            "fullUrl": "https://appmarket.epic.com/interconnect-amcurprd-oauth/api/FHIR/R4/Encounter/eJn63m6nC0ARyNGVmpuFPcQ3",
            "resource": {
                "resourceType": "Encounter",
                "id": "eJn63m6nC0ARyNGVmpuFPcQ3",
                "identifier": [
                    {
                        "use": "usual",
                        "system": "urn:oid:1.2.840.114350.1.13.0.1.7.3.698084.8",
                        "value": "7288"
                    }
                ],
                "status": "unknown",
                "class": {
                    "system": "urn:oid:1.2.840.114350.1.72.1.7.7.10.696784.13260",
                    "code": "13",
                    "display": "Support OP Encounter"
                },
                "subject": {
                    "reference": "Patient/e-oM0jGCeUgAHF7bTfNWXzw3",
                    "display": "Liver, Len Txpq"
                },
                "period": {
                    "start": "2011-09-25",
                    "end": "2011-09-25"
                }
            },
            "search": {
                "mode": "match"
            }
        },
        {
            "link": [
                {
                    "relation": "self",
                    "url": "https://appmarket.epic.com/interconnect-amcurprd-oauth/api/FHIR/R4/Encounter/e8uPpFp3X0pX2EDzp99KF1Q3"
                }
            ],
            "fullUrl": "https://appmarket.epic.com/interconnect-amcurprd-oauth/api/FHIR/R4/Encounter/e8uPpFp3X0pX2EDzp99KF1Q3",
            "resource": {
                "resourceType": "Encounter",
                "id": "e8uPpFp3X0pX2EDzp99KF1Q3",
                "identifier": [
                    {
                        "use": "usual",
                        "system": "urn:oid:1.2.840.114350.1.13.0.1.7.3.698084.8",
                        "value": "7289"
                    }
                ],
                "status": "unknown",
                "class": {
                    "system": "urn:oid:1.2.840.114350.1.72.1.7.7.10.696784.13260",
                    "code": "13",
                    "display": "Support OP Encounter"
                },
                "subject": {
                    "reference": "Patient/e-oM0jGCeUgAHF7bTfNWXzw3",
                    "display": "Liver, Len Txpq"
                },
                "period": {
                    "start": "2011-09-24",
                    "end": "2011-09-24"
                }
            },
            "search": {
                "mode": "match"
            }
        },
        {
            "link": [
                {
                    "relation": "self",
                    "url": "https://appmarket.epic.com/interconnect-amcurprd-oauth/api/FHIR/R4/Encounter/eksdGE35heJPT.BKM5gBBxw3"
                }
            ],
            "fullUrl": "https://appmarket.epic.com/interconnect-amcurprd-oauth/api/FHIR/R4/Encounter/eksdGE35heJPT.BKM5gBBxw3",
            "resource": {
                "resourceType": "Encounter",
                "id": "eksdGE35heJPT.BKM5gBBxw3",
                "identifier": [
                    {
                        "use": "usual",
                        "system": "urn:oid:1.2.840.114350.1.13.0.1.7.3.698084.8",
                        "value": "7290"
                    }
                ],
                "status": "unknown",
                "class": {
                    "system": "urn:oid:1.2.840.114350.1.72.1.7.7.10.696784.13260",
                    "code": "13",
                    "display": "Support OP Encounter"
                },
                "subject": {
                    "reference": "Patient/e-oM0jGCeUgAHF7bTfNWXzw3",
                    "display": "Liver, Len Txpq"
                },
                "period": {
                    "start": "2011-09-01",
                    "end": "2011-09-01"
                }
            },
            "search": {
                "mode": "match"
            }
        },
        {
            "link": [
                {
                    "relation": "self",
                    "url": "https://appmarket.epic.com/interconnect-amcurprd-oauth/api/FHIR/R4/Encounter/eNlnjEsJCF1kK8QkRMLMVug3"
                }
            ],
            "fullUrl": "https://appmarket.epic.com/interconnect-amcurprd-oauth/api/FHIR/R4/Encounter/eNlnjEsJCF1kK8QkRMLMVug3",
            "resource": {
                "resourceType": "Encounter",
                "id": "eNlnjEsJCF1kK8QkRMLMVug3",
                "identifier": [
                    {
                        "use": "usual",
                        "system": "urn:oid:1.2.840.114350.1.13.0.1.7.3.698084.8",
                        "value": "7291"
                    }
                ],
                "status": "unknown",
                "class": {
                    "system": "urn:oid:1.2.840.114350.1.72.1.7.7.10.696784.13260",
                    "code": "13",
                    "display": "Support OP Encounter"
                },
                "subject": {
                    "reference": "Patient/e-oM0jGCeUgAHF7bTfNWXzw3",
                    "display": "Liver, Len Txpq"
                },
                "period": {
                    "start": "2011-08-03",
                    "end": "2011-08-03"
                }
            },
            "search": {
                "mode": "match"
            }
        },
        {
            "link": [
                {
                    "relation": "self",
                    "url": "https://appmarket.epic.com/interconnect-amcurprd-oauth/api/FHIR/R4/Encounter/eelRCxKoBwd6AM.S7jmmK9Q3"
                }
            ],
            "fullUrl": "https://appmarket.epic.com/interconnect-amcurprd-oauth/api/FHIR/R4/Encounter/eelRCxKoBwd6AM.S7jmmK9Q3",
            "resource": {
                "resourceType": "Encounter",
                "id": "eelRCxKoBwd6AM.S7jmmK9Q3",
                "identifier": [
                    {
                        "use": "usual",
                        "system": "urn:oid:1.2.840.114350.1.13.0.1.7.3.698084.8",
                        "value": "7292"
                    }
                ],
                "status": "unknown",
                "class": {
                    "system": "urn:oid:1.2.840.114350.1.72.1.7.7.10.696784.13260",
                    "code": "13",
                    "display": "Support OP Encounter"
                },
                "subject": {
                    "reference": "Patient/e-oM0jGCeUgAHF7bTfNWXzw3",
                    "display": "Liver, Len Txpq"
                },
                "period": {
                    "start": "2011-07-21",
                    "end": "2011-07-21"
                }
            },
            "search": {
                "mode": "match"
            }
        },
        {
            "link": [
                {
                    "relation": "self",
                    "url": "https://appmarket.epic.com/interconnect-amcurprd-oauth/api/FHIR/R4/Encounter/edF2i422lChZ2fqvoT0cNoA3"
                }
            ],
            "fullUrl": "https://appmarket.epic.com/interconnect-amcurprd-oauth/api/FHIR/R4/Encounter/edF2i422lChZ2fqvoT0cNoA3",
            "resource": {
                "resourceType": "Encounter",
                "id": "edF2i422lChZ2fqvoT0cNoA3",
                "identifier": [
                    {
                        "use": "usual",
                        "system": "urn:oid:1.2.840.114350.1.13.0.1.7.3.698084.8",
                        "value": "7293"
                    }
                ],
                "status": "unknown",
                "class": {
                    "system": "urn:oid:1.2.840.114350.1.72.1.7.7.10.696784.13260",
                    "code": "13",
                    "display": "Support OP Encounter"
                },
                "subject": {
                    "reference": "Patient/e-oM0jGCeUgAHF7bTfNWXzw3",
                    "display": "Liver, Len Txpq"
                },
                "period": {
                    "start": "2011-07-16",
                    "end": "2011-07-16"
                }
            },
            "search": {
                "mode": "match"
            }
        },
        {
            "link": [
                {
                    "relation": "self",
                    "url": "https://appmarket.epic.com/interconnect-amcurprd-oauth/api/FHIR/R4/Encounter/eMsta3YdTIe5KtJoU7HR7wg3"
                }
            ],
            "fullUrl": "https://appmarket.epic.com/interconnect-amcurprd-oauth/api/FHIR/R4/Encounter/eMsta3YdTIe5KtJoU7HR7wg3",
            "resource": {
                "resourceType": "Encounter",
                "id": "eMsta3YdTIe5KtJoU7HR7wg3",
                "identifier": [
                    {
                        "use": "usual",
                        "system": "urn:oid:1.2.840.114350.1.13.0.1.7.3.698084.8",
                        "value": "7294"
                    }
                ],
                "status": "unknown",
                "class": {
                    "system": "urn:oid:1.2.840.114350.1.72.1.7.7.10.696784.13260",
                    "code": "13",
                    "display": "Support OP Encounter"
                },
                "subject": {
                    "reference": "Patient/e-oM0jGCeUgAHF7bTfNWXzw3",
                    "display": "Liver, Len Txpq"
                },
                "period": {
                    "start": "2011-07-16",
                    "end": "2011-07-16"
                }
            },
            "search": {
                "mode": "match"
            }
        },
        {
            "link": [
                {
                    "relation": "self",
                    "url": "https://appmarket.epic.com/interconnect-amcurprd-oauth/api/FHIR/R4/Encounter/eimNZ77W3r0TRINURcqHV5A3"
                }
            ],
            "fullUrl": "https://appmarket.epic.com/interconnect-amcurprd-oauth/api/FHIR/R4/Encounter/eimNZ77W3r0TRINURcqHV5A3",
            "resource": {
                "resourceType": "Encounter",
                "id": "eimNZ77W3r0TRINURcqHV5A3",
                "identifier": [
                    {
                        "use": "usual",
                        "system": "urn:oid:1.2.840.114350.1.13.0.1.7.3.698084.8",
                        "value": "7295"
                    }
                ],
                "status": "unknown",
                "class": {
                    "system": "urn:oid:1.2.840.114350.1.72.1.7.7.10.696784.13260",
                    "code": "13",
                    "display": "Support OP Encounter"
                },
                "subject": {
                    "reference": "Patient/e-oM0jGCeUgAHF7bTfNWXzw3",
                    "display": "Liver, Len Txpq"
                },
                "period": {
                    "start": "2011-07-16",
                    "end": "2011-07-16"
                }
            },
            "search": {
                "mode": "match"
            }
        },
        {
            "link": [
                {
                    "relation": "self",
                    "url": "https://appmarket.epic.com/interconnect-amcurprd-oauth/api/FHIR/R4/Encounter/eJG1dRGCw9dOOhrzpg6YpMA3"
                }
            ],
            "fullUrl": "https://appmarket.epic.com/interconnect-amcurprd-oauth/api/FHIR/R4/Encounter/eJG1dRGCw9dOOhrzpg6YpMA3",
            "resource": {
                "resourceType": "Encounter",
                "id": "eJG1dRGCw9dOOhrzpg6YpMA3",
                "identifier": [
                    {
                        "use": "usual",
                        "system": "urn:oid:1.2.840.114350.1.13.0.1.7.3.698084.8",
                        "value": "7296"
                    }
                ],
                "status": "unknown",
                "class": {
                    "system": "urn:oid:1.2.840.114350.1.72.1.7.7.10.696784.13260",
                    "code": "13",
                    "display": "Support OP Encounter"
                },
                "subject": {
                    "reference": "Patient/e-oM0jGCeUgAHF7bTfNWXzw3",
                    "display": "Liver, Len Txpq"
                },
                "period": {
                    "start": "2011-06-22",
                    "end": "2011-06-22"
                }
            },
            "search": {
                "mode": "match"
            }
        },
        {
            "link": [
                {
                    "relation": "self",
                    "url": "https://appmarket.epic.com/interconnect-amcurprd-oauth/api/FHIR/R4/Encounter/e-j0JsNMHkcdNtifr8K.1eg3"
                }
            ],
            "fullUrl": "https://appmarket.epic.com/interconnect-amcurprd-oauth/api/FHIR/R4/Encounter/e-j0JsNMHkcdNtifr8K.1eg3",
            "resource": {
                "resourceType": "Encounter",
                "id": "e-j0JsNMHkcdNtifr8K.1eg3",
                "identifier": [
                    {
                        "use": "usual",
                        "system": "urn:oid:1.2.840.114350.1.13.0.1.7.3.698084.8",
                        "value": "7297"
                    }
                ],
                "status": "unknown",
                "class": {
                    "system": "urn:oid:1.2.840.114350.1.72.1.7.7.10.696784.13260",
                    "code": "13",
                    "display": "Support OP Encounter"
                },
                "subject": {
                    "reference": "Patient/e-oM0jGCeUgAHF7bTfNWXzw3",
                    "display": "Liver, Len Txpq"
                },
                "period": {
                    "start": "2011-06-12",
                    "end": "2011-06-12"
                }
            },
            "search": {
                "mode": "match"
            }
        },
        {
            "link": [
                {
                    "relation": "self",
                    "url": "https://appmarket.epic.com/interconnect-amcurprd-oauth/api/FHIR/R4/Encounter/epIUigojRW4fBEFiOCqnrsw3"
                }
            ],
            "fullUrl": "https://appmarket.epic.com/interconnect-amcurprd-oauth/api/FHIR/R4/Encounter/epIUigojRW4fBEFiOCqnrsw3",
            "resource": {
                "resourceType": "Encounter",
                "id": "epIUigojRW4fBEFiOCqnrsw3",
                "identifier": [
                    {
                        "use": "usual",
                        "system": "urn:oid:1.2.840.114350.1.13.0.1.7.3.698084.8",
                        "value": "7298"
                    }
                ],
                "status": "unknown",
                "class": {
                    "system": "urn:oid:1.2.840.114350.1.72.1.7.7.10.696784.13260",
                    "code": "13",
                    "display": "Support OP Encounter"
                },
                "subject": {
                    "reference": "Patient/e-oM0jGCeUgAHF7bTfNWXzw3",
                    "display": "Liver, Len Txpq"
                },
                "period": {
                    "start": "2011-06-12",
                    "end": "2011-06-12"
                }
            },
            "search": {
                "mode": "match"
            }
        },
        {
            "link": [
                {
                    "relation": "self",
                    "url": "https://appmarket.epic.com/interconnect-amcurprd-oauth/api/FHIR/R4/Encounter/ePAEzy6F37JN.HvfFj1MKsg3"
                }
            ],
            "fullUrl": "https://appmarket.epic.com/interconnect-amcurprd-oauth/api/FHIR/R4/Encounter/ePAEzy6F37JN.HvfFj1MKsg3",
            "resource": {
                "resourceType": "Encounter",
                "id": "ePAEzy6F37JN.HvfFj1MKsg3",
                "identifier": [
                    {
                        "use": "usual",
                        "system": "urn:oid:1.2.840.114350.1.13.0.1.7.3.698084.8",
                        "value": "7299"
                    }
                ],
                "status": "unknown",
                "class": {
                    "system": "urn:oid:1.2.840.114350.1.72.1.7.7.10.696784.13260",
                    "code": "13",
                    "display": "Support OP Encounter"
                },
                "subject": {
                    "reference": "Patient/e-oM0jGCeUgAHF7bTfNWXzw3",
                    "display": "Liver, Len Txpq"
                },
                "period": {
                    "start": "2011-06-11",
                    "end": "2011-06-11"
                }
            },
            "search": {
                "mode": "match"
            }
        },
        {
            "link": [
                {
                    "relation": "self",
                    "url": "https://appmarket.epic.com/interconnect-amcurprd-oauth/api/FHIR/R4/Encounter/erG8FdJoe0hMhbg8wpTmuTA3"
                }
            ],
            "fullUrl": "https://appmarket.epic.com/interconnect-amcurprd-oauth/api/FHIR/R4/Encounter/erG8FdJoe0hMhbg8wpTmuTA3",
            "resource": {
                "resourceType": "Encounter",
                "id": "erG8FdJoe0hMhbg8wpTmuTA3",
                "identifier": [
                    {
                        "use": "usual",
                        "system": "urn:oid:1.2.840.114350.1.13.0.1.7.3.698084.8",
                        "value": "7300"
                    }
                ],
                "status": "unknown",
                "class": {
                    "system": "urn:oid:1.2.840.114350.1.72.1.7.7.10.696784.13260",
                    "code": "13",
                    "display": "Support OP Encounter"
                },
                "subject": {
                    "reference": "Patient/e-oM0jGCeUgAHF7bTfNWXzw3",
                    "display": "Liver, Len Txpq"
                },
                "period": {
                    "start": "2011-06-11",
                    "end": "2011-06-11"
                }
            },
            "search": {
                "mode": "match"
            }
        },
        {
            "link": [
                {
                    "relation": "self",
                    "url": "https://appmarket.epic.com/interconnect-amcurprd-oauth/api/FHIR/R4/Encounter/eZD9-orWuASgBydKZXlvnBg3"
                }
            ],
            "fullUrl": "https://appmarket.epic.com/interconnect-amcurprd-oauth/api/FHIR/R4/Encounter/eZD9-orWuASgBydKZXlvnBg3",
            "resource": {
                "resourceType": "Encounter",
                "id": "eZD9-orWuASgBydKZXlvnBg3",
                "identifier": [
                    {
                        "use": "usual",
                        "system": "urn:oid:1.2.840.114350.1.13.0.1.7.3.698084.8",
                        "value": "7301"
                    }
                ],
                "status": "unknown",
                "class": {
                    "system": "urn:oid:1.2.840.114350.1.72.1.7.7.10.696784.13260",
                    "code": "13",
                    "display": "Support OP Encounter"
                },
                "subject": {
                    "reference": "Patient/e-oM0jGCeUgAHF7bTfNWXzw3",
                    "display": "Liver, Len Txpq"
                },
                "period": {
                    "start": "2011-06-02",
                    "end": "2011-06-02"
                }
            },
            "search": {
                "mode": "match"
            }
        },
        {
            "link": [
                {
                    "relation": "self",
                    "url": "https://appmarket.epic.com/interconnect-amcurprd-oauth/api/FHIR/R4/Encounter/eljcFWS0Fa-f8hlkO4KpHDQ3"
                }
            ],
            "fullUrl": "https://appmarket.epic.com/interconnect-amcurprd-oauth/api/FHIR/R4/Encounter/eljcFWS0Fa-f8hlkO4KpHDQ3",
            "resource": {
                "resourceType": "Encounter",
                "id": "eljcFWS0Fa-f8hlkO4KpHDQ3",
                "identifier": [
                    {
                        "use": "usual",
                        "system": "urn:oid:1.2.840.114350.1.13.0.1.7.3.698084.8",
                        "value": "7302"
                    }
                ],
                "status": "unknown",
                "class": {
                    "system": "urn:oid:1.2.840.114350.1.72.1.7.7.10.696784.13260",
                    "code": "13",
                    "display": "Support OP Encounter"
                },
                "subject": {
                    "reference": "Patient/e-oM0jGCeUgAHF7bTfNWXzw3",
                    "display": "Liver, Len Txpq"
                },
                "period": {
                    "start": "2011-05-19",
                    "end": "2011-05-19"
                }
            },
            "search": {
                "mode": "match"
            }
        },
        {
            "link": [
                {
                    "relation": "self",
                    "url": "https://appmarket.epic.com/interconnect-amcurprd-oauth/api/FHIR/R4/Encounter/eDvWrpLULUqmY5ikSn0WBaA3"
                }
            ],
            "fullUrl": "https://appmarket.epic.com/interconnect-amcurprd-oauth/api/FHIR/R4/Encounter/eDvWrpLULUqmY5ikSn0WBaA3",
            "resource": {
                "resourceType": "Encounter",
                "id": "eDvWrpLULUqmY5ikSn0WBaA3",
                "identifier": [
                    {
                        "use": "usual",
                        "system": "urn:oid:1.2.840.114350.1.13.0.1.7.3.698084.8",
                        "value": "7303"
                    }
                ],
                "status": "unknown",
                "class": {
                    "system": "urn:oid:1.2.840.114350.1.72.1.7.7.10.696784.13260",
                    "code": "13",
                    "display": "Support OP Encounter"
                },
                "subject": {
                    "reference": "Patient/e-oM0jGCeUgAHF7bTfNWXzw3",
                    "display": "Liver, Len Txpq"
                },
                "period": {
                    "start": "2011-04-20",
                    "end": "2011-04-20"
                }
            },
            "search": {
                "mode": "match"
            }
        },
        {
            "link": [
                {
                    "relation": "self",
                    "url": "https://appmarket.epic.com/interconnect-amcurprd-oauth/api/FHIR/R4/Encounter/eXocaCiUTCh7rxolTvH72Mw3"
                }
            ],
            "fullUrl": "https://appmarket.epic.com/interconnect-amcurprd-oauth/api/FHIR/R4/Encounter/eXocaCiUTCh7rxolTvH72Mw3",
            "resource": {
                "resourceType": "Encounter",
                "id": "eXocaCiUTCh7rxolTvH72Mw3",
                "identifier": [
                    {
                        "use": "usual",
                        "system": "urn:oid:1.2.840.114350.1.13.0.1.7.3.698084.8",
                        "value": "7304"
                    }
                ],
                "status": "unknown",
                "class": {
                    "system": "urn:oid:1.2.840.114350.1.72.1.7.7.10.696784.13260",
                    "code": "13",
                    "display": "Support OP Encounter"
                },
                "subject": {
                    "reference": "Patient/e-oM0jGCeUgAHF7bTfNWXzw3",
                    "display": "Liver, Len Txpq"
                },
                "period": {
                    "start": "2011-04-02",
                    "end": "2011-04-02"
                }
            },
            "search": {
                "mode": "match"
            }
        },
        {
            "link": [
                {
                    "relation": "self",
                    "url": "https://appmarket.epic.com/interconnect-amcurprd-oauth/api/FHIR/R4/Encounter/esIciAfqp2Z6oWYhalJq2JQ3"
                }
            ],
            "fullUrl": "https://appmarket.epic.com/interconnect-amcurprd-oauth/api/FHIR/R4/Encounter/esIciAfqp2Z6oWYhalJq2JQ3",
            "resource": {
                "resourceType": "Encounter",
                "id": "esIciAfqp2Z6oWYhalJq2JQ3",
                "identifier": [
                    {
                        "use": "usual",
                        "system": "urn:oid:1.2.840.114350.1.13.0.1.7.3.698084.8",
                        "value": "7305"
                    }
                ],
                "status": "unknown",
                "class": {
                    "system": "urn:oid:1.2.840.114350.1.72.1.7.7.10.696784.13260",
                    "code": "13",
                    "display": "Support OP Encounter"
                },
                "subject": {
                    "reference": "Patient/e-oM0jGCeUgAHF7bTfNWXzw3",
                    "display": "Liver, Len Txpq"
                },
                "period": {
                    "start": "2011-03-23",
                    "end": "2011-03-23"
                }
            },
            "search": {
                "mode": "match"
            }
        },
        {
            "link": [
                {
                    "relation": "self",
                    "url": "https://appmarket.epic.com/interconnect-amcurprd-oauth/api/FHIR/R4/Encounter/enGdxbTTq8u2XWJAthHfH.w3"
                }
            ],
            "fullUrl": "https://appmarket.epic.com/interconnect-amcurprd-oauth/api/FHIR/R4/Encounter/enGdxbTTq8u2XWJAthHfH.w3",
            "resource": {
                "resourceType": "Encounter",
                "id": "enGdxbTTq8u2XWJAthHfH.w3",
                "identifier": [
                    {
                        "use": "usual",
                        "system": "urn:oid:1.2.840.114350.1.13.0.1.7.3.698084.8",
                        "value": "7306"
                    }
                ],
                "status": "unknown",
                "class": {
                    "system": "urn:oid:1.2.840.114350.1.72.1.7.7.10.696784.13260",
                    "code": "13",
                    "display": "Support OP Encounter"
                },
                "subject": {
                    "reference": "Patient/e-oM0jGCeUgAHF7bTfNWXzw3",
                    "display": "Liver, Len Txpq"
                },
                "period": {
                    "start": "2011-03-23",
                    "end": "2011-03-23"
                }
            },
            "search": {
                "mode": "match"
            }
        },
        {
            "link": [
                {
                    "relation": "self",
                    "url": "https://appmarket.epic.com/interconnect-amcurprd-oauth/api/FHIR/R4/Encounter/ewTVONWRKXE6FbVH5CbHzXg3"
                }
            ],
            "fullUrl": "https://appmarket.epic.com/interconnect-amcurprd-oauth/api/FHIR/R4/Encounter/ewTVONWRKXE6FbVH5CbHzXg3",
            "resource": {
                "resourceType": "Encounter",
                "id": "ewTVONWRKXE6FbVH5CbHzXg3",
                "identifier": [
                    {
                        "use": "usual",
                        "system": "urn:oid:1.2.840.114350.1.13.0.1.7.3.698084.8",
                        "value": "7307"
                    }
                ],
                "status": "unknown",
                "class": {
                    "system": "urn:oid:1.2.840.114350.1.72.1.7.7.10.696784.13260",
                    "code": "13",
                    "display": "Support OP Encounter"
                },
                "subject": {
                    "reference": "Patient/e-oM0jGCeUgAHF7bTfNWXzw3",
                    "display": "Liver, Len Txpq"
                },
                "period": {
                    "start": "2011-03-16",
                    "end": "2011-03-16"
                }
            },
            "search": {
                "mode": "match"
            }
        },
        {
            "link": [
                {
                    "relation": "self",
                    "url": "https://appmarket.epic.com/interconnect-amcurprd-oauth/api/FHIR/R4/Encounter/eM5Xquf31CEi7eVDvs7gqPg3"
                }
            ],
            "fullUrl": "https://appmarket.epic.com/interconnect-amcurprd-oauth/api/FHIR/R4/Encounter/eM5Xquf31CEi7eVDvs7gqPg3",
            "resource": {
                "resourceType": "Encounter",
                "id": "eM5Xquf31CEi7eVDvs7gqPg3",
                "identifier": [
                    {
                        "use": "usual",
                        "system": "urn:oid:1.2.840.114350.1.13.0.1.7.3.698084.8",
                        "value": "7308"
                    }
                ],
                "status": "unknown",
                "class": {
                    "system": "urn:oid:1.2.840.114350.1.72.1.7.7.10.696784.13260",
                    "code": "13",
                    "display": "Support OP Encounter"
                },
                "subject": {
                    "reference": "Patient/e-oM0jGCeUgAHF7bTfNWXzw3",
                    "display": "Liver, Len Txpq"
                },
                "period": {
                    "start": "2011-03-11",
                    "end": "2011-03-11"
                }
            },
            "search": {
                "mode": "match"
            }
        },
        {
            "link": [
                {
                    "relation": "self",
                    "url": "https://appmarket.epic.com/interconnect-amcurprd-oauth/api/FHIR/R4/Encounter/eXHzowYAD8i.P6umYvVjOfQ3"
                }
            ],
            "fullUrl": "https://appmarket.epic.com/interconnect-amcurprd-oauth/api/FHIR/R4/Encounter/eXHzowYAD8i.P6umYvVjOfQ3",
            "resource": {
                "resourceType": "Encounter",
                "id": "eXHzowYAD8i.P6umYvVjOfQ3",
                "identifier": [
                    {
                        "use": "usual",
                        "system": "urn:oid:1.2.840.114350.1.13.0.1.7.3.698084.8",
                        "value": "7309"
                    }
                ],
                "status": "unknown",
                "class": {
                    "system": "urn:oid:1.2.840.114350.1.72.1.7.7.10.696784.13260",
                    "code": "13",
                    "display": "Support OP Encounter"
                },
                "subject": {
                    "reference": "Patient/e-oM0jGCeUgAHF7bTfNWXzw3",
                    "display": "Liver, Len Txpq"
                },
                "period": {
                    "start": "2011-03-08",
                    "end": "2011-03-08"
                }
            },
            "search": {
                "mode": "match"
            }
        },
        {
            "link": [
                {
                    "relation": "self",
                    "url": "https://appmarket.epic.com/interconnect-amcurprd-oauth/api/FHIR/R4/Encounter/eI6vnPZv4.Pb2c9wpBkyb7w3"
                }
            ],
            "fullUrl": "https://appmarket.epic.com/interconnect-amcurprd-oauth/api/FHIR/R4/Encounter/eI6vnPZv4.Pb2c9wpBkyb7w3",
            "resource": {
                "resourceType": "Encounter",
                "id": "eI6vnPZv4.Pb2c9wpBkyb7w3",
                "identifier": [
                    {
                        "use": "usual",
                        "system": "urn:oid:1.2.840.114350.1.13.0.1.7.3.698084.8",
                        "value": "7310"
                    }
                ],
                "status": "unknown",
                "class": {
                    "system": "urn:oid:1.2.840.114350.1.72.1.7.7.10.696784.13260",
                    "code": "13",
                    "display": "Support OP Encounter"
                },
                "subject": {
                    "reference": "Patient/e-oM0jGCeUgAHF7bTfNWXzw3",
                    "display": "Liver, Len Txpq"
                },
                "period": {
                    "start": "2011-03-04",
                    "end": "2011-03-04"
                }
            },
            "search": {
                "mode": "match"
            }
        },
        {
            "link": [
                {
                    "relation": "self",
                    "url": "https://appmarket.epic.com/interconnect-amcurprd-oauth/api/FHIR/R4/Encounter/ees8SHuJWhNLRwcOevZZWMw3"
                }
            ],
            "fullUrl": "https://appmarket.epic.com/interconnect-amcurprd-oauth/api/FHIR/R4/Encounter/ees8SHuJWhNLRwcOevZZWMw3",
            "resource": {
                "resourceType": "Encounter",
                "id": "ees8SHuJWhNLRwcOevZZWMw3",
                "identifier": [
                    {
                        "use": "usual",
                        "system": "urn:oid:1.2.840.114350.1.13.0.1.7.3.698084.8",
                        "value": "7311"
                    }
                ],
                "status": "unknown",
                "class": {
                    "system": "urn:oid:1.2.840.114350.1.72.1.7.7.10.696784.13260",
                    "code": "13",
                    "display": "Support OP Encounter"
                },
                "subject": {
                    "reference": "Patient/e-oM0jGCeUgAHF7bTfNWXzw3",
                    "display": "Liver, Len Txpq"
                },
                "period": {
                    "start": "2011-03-04",
                    "end": "2011-03-04"
                }
            },
            "search": {
                "mode": "match"
            }
        },
        {
            "link": [
                {
                    "relation": "self",
                    "url": "https://appmarket.epic.com/interconnect-amcurprd-oauth/api/FHIR/R4/Encounter/eCd8S3mCTpz9SOwNqDhvxkA3"
                }
            ],
            "fullUrl": "https://appmarket.epic.com/interconnect-amcurprd-oauth/api/FHIR/R4/Encounter/eCd8S3mCTpz9SOwNqDhvxkA3",
            "resource": {
                "resourceType": "Encounter",
                "id": "eCd8S3mCTpz9SOwNqDhvxkA3",
                "identifier": [
                    {
                        "use": "usual",
                        "system": "urn:oid:1.2.840.114350.1.13.0.1.7.3.698084.8",
                        "value": "7312"
                    }
                ],
                "status": "unknown",
                "class": {
                    "system": "urn:oid:1.2.840.114350.1.72.1.7.7.10.696784.13260",
                    "code": "13",
                    "display": "Support OP Encounter"
                },
                "subject": {
                    "reference": "Patient/e-oM0jGCeUgAHF7bTfNWXzw3",
                    "display": "Liver, Len Txpq"
                },
                "period": {
                    "start": "2011-03-03",
                    "end": "2011-03-03"
                }
            },
            "search": {
                "mode": "match"
            }
        },
        {
            "link": [
                {
                    "relation": "self",
                    "url": "https://appmarket.epic.com/interconnect-amcurprd-oauth/api/FHIR/R4/Encounter/ePkqDaM1is6OvaT2ce.ntjQ3"
                }
            ],
            "fullUrl": "https://appmarket.epic.com/interconnect-amcurprd-oauth/api/FHIR/R4/Encounter/ePkqDaM1is6OvaT2ce.ntjQ3",
            "resource": {
                "resourceType": "Encounter",
                "id": "ePkqDaM1is6OvaT2ce.ntjQ3",
                "identifier": [
                    {
                        "use": "usual",
                        "system": "urn:oid:1.2.840.114350.1.13.0.1.7.3.698084.8",
                        "value": "7313"
                    }
                ],
                "status": "unknown",
                "class": {
                    "system": "urn:oid:1.2.840.114350.1.72.1.7.7.10.696784.13260",
                    "code": "13",
                    "display": "Support OP Encounter"
                },
                "subject": {
                    "reference": "Patient/e-oM0jGCeUgAHF7bTfNWXzw3",
                    "display": "Liver, Len Txpq"
                },
                "period": {
                    "start": "2011-02-08",
                    "end": "2011-02-08"
                }
            },
            "search": {
                "mode": "match"
            }
        },
        {
            "link": [
                {
                    "relation": "self",
                    "url": "https://appmarket.epic.com/interconnect-amcurprd-oauth/api/FHIR/R4/Encounter/eI9ufPLHf8uA4E7kgclwMpw3"
                }
            ],
            "fullUrl": "https://appmarket.epic.com/interconnect-amcurprd-oauth/api/FHIR/R4/Encounter/eI9ufPLHf8uA4E7kgclwMpw3",
            "resource": {
                "resourceType": "Encounter",
                "id": "eI9ufPLHf8uA4E7kgclwMpw3",
                "identifier": [
                    {
                        "use": "usual",
                        "system": "urn:oid:1.2.840.114350.1.13.0.1.7.3.698084.8",
                        "value": "7314"
                    }
                ],
                "status": "unknown",
                "class": {
                    "system": "urn:oid:1.2.840.114350.1.72.1.7.7.10.696784.13260",
                    "code": "13",
                    "display": "Support OP Encounter"
                },
                "subject": {
                    "reference": "Patient/e-oM0jGCeUgAHF7bTfNWXzw3",
                    "display": "Liver, Len Txpq"
                },
                "period": {
                    "start": "2011-01-10",
                    "end": "2011-01-10"
                }
            },
            "search": {
                "mode": "match"
            }
        },
        {
            "link": [
                {
                    "relation": "self",
                    "url": "https://appmarket.epic.com/interconnect-amcurprd-oauth/api/FHIR/R4/Encounter/etydLmHBm6xBZwuHh89FaVw3"
                }
            ],
            "fullUrl": "https://appmarket.epic.com/interconnect-amcurprd-oauth/api/FHIR/R4/Encounter/etydLmHBm6xBZwuHh89FaVw3",
            "resource": {
                "resourceType": "Encounter",
                "id": "etydLmHBm6xBZwuHh89FaVw3",
                "identifier": [
                    {
                        "use": "usual",
                        "system": "urn:oid:1.2.840.114350.1.13.0.1.7.3.698084.8",
                        "value": "7315"
                    }
                ],
                "status": "unknown",
                "class": {
                    "system": "urn:oid:1.2.840.114350.1.72.1.7.7.10.696784.13260",
                    "code": "13",
                    "display": "Support OP Encounter"
                },
                "subject": {
                    "reference": "Patient/e-oM0jGCeUgAHF7bTfNWXzw3",
                    "display": "Liver, Len Txpq"
                },
                "period": {
                    "start": "2010-12-28",
                    "end": "2010-12-28"
                }
            },
            "search": {
                "mode": "match"
            }
        },
        {
            "link": [
                {
                    "relation": "self",
                    "url": "https://appmarket.epic.com/interconnect-amcurprd-oauth/api/FHIR/R4/Encounter/erWED2KGFzJI.Em3wZ.D-wQ3"
                }
            ],
            "fullUrl": "https://appmarket.epic.com/interconnect-amcurprd-oauth/api/FHIR/R4/Encounter/erWED2KGFzJI.Em3wZ.D-wQ3",
            "resource": {
                "resourceType": "Encounter",
                "id": "erWED2KGFzJI.Em3wZ.D-wQ3",
                "identifier": [
                    {
                        "use": "usual",
                        "system": "urn:oid:1.2.840.114350.1.13.0.1.7.3.698084.8",
                        "value": "7316"
                    }
                ],
                "status": "unknown",
                "class": {
                    "system": "urn:oid:1.2.840.114350.1.72.1.7.7.10.696784.13260",
                    "code": "13",
                    "display": "Support OP Encounter"
                },
                "subject": {
                    "reference": "Patient/e-oM0jGCeUgAHF7bTfNWXzw3",
                    "display": "Liver, Len Txpq"
                },
                "period": {
                    "start": "2010-12-23",
                    "end": "2010-12-23"
                }
            },
            "search": {
                "mode": "match"
            }
        },
        {
            "link": [
                {
                    "relation": "self",
                    "url": "https://appmarket.epic.com/interconnect-amcurprd-oauth/api/FHIR/R4/Encounter/eqDnMXF4u4uO7r47C.Ymmbw3"
                }
            ],
            "fullUrl": "https://appmarket.epic.com/interconnect-amcurprd-oauth/api/FHIR/R4/Encounter/eqDnMXF4u4uO7r47C.Ymmbw3",
            "resource": {
                "resourceType": "Encounter",
                "id": "eqDnMXF4u4uO7r47C.Ymmbw3",
                "identifier": [
                    {
                        "use": "usual",
                        "system": "urn:oid:1.2.840.114350.1.13.0.1.7.3.698084.8",
                        "value": "7317"
                    }
                ],
                "status": "unknown",
                "class": {
                    "system": "urn:oid:1.2.840.114350.1.72.1.7.7.10.696784.13260",
                    "code": "13",
                    "display": "Support OP Encounter"
                },
                "subject": {
                    "reference": "Patient/e-oM0jGCeUgAHF7bTfNWXzw3",
                    "display": "Liver, Len Txpq"
                },
                "period": {
                    "start": "2010-12-23",
                    "end": "2010-12-23"
                }
            },
            "search": {
                "mode": "match"
            }
        },
        {
            "link": [
                {
                    "relation": "self",
                    "url": "https://appmarket.epic.com/interconnect-amcurprd-oauth/api/FHIR/R4/Encounter/eG6zfKfQUgBzj7O4FGbrFPA3"
                }
            ],
            "fullUrl": "https://appmarket.epic.com/interconnect-amcurprd-oauth/api/FHIR/R4/Encounter/eG6zfKfQUgBzj7O4FGbrFPA3",
            "resource": {
                "resourceType": "Encounter",
                "id": "eG6zfKfQUgBzj7O4FGbrFPA3",
                "identifier": [
                    {
                        "use": "usual",
                        "system": "urn:oid:1.2.840.114350.1.13.0.1.7.3.698084.8",
                        "value": "7318"
                    }
                ],
                "status": "unknown",
                "class": {
                    "system": "urn:oid:1.2.840.114350.1.72.1.7.7.10.696784.13260",
                    "code": "13",
                    "display": "Support OP Encounter"
                },
                "subject": {
                    "reference": "Patient/e-oM0jGCeUgAHF7bTfNWXzw3",
                    "display": "Liver, Len Txpq"
                },
                "period": {
                    "start": "2010-12-23",
                    "end": "2010-12-23"
                }
            },
            "search": {
                "mode": "match"
            }
        },
        {
            "link": [
                {
                    "relation": "self",
                    "url": "https://appmarket.epic.com/interconnect-amcurprd-oauth/api/FHIR/R4/Patient/e-oM0jGCeUgAHF7bTfNWXzw3"
                }
            ],
            "fullUrl": "https://appmarket.epic.com/interconnect-amcurprd-oauth/api/FHIR/R4/Patient/e-oM0jGCeUgAHF7bTfNWXzw3",
            "resource": {
                "resourceType": "Patient",
                "id": "e-oM0jGCeUgAHF7bTfNWXzw3",
                "extension": [
                    {
                        "extension": [
                            {
                                "valueCoding": {
                                    "system": "http://terminology.hl7.org/CodeSystem/v3-NullFlavor",
                                    "code": "UNK",
                                    "display": "Unknown"
                                },
                                "url": "ombCategory"
                            },
                            {
                                "valueString": "Unknown",
                                "url": "text"
                            }
                        ],
                        "url": "http://hl7.org/fhir/us/core/StructureDefinition/us-core-race"
                    },
                    {
                        "extension": [
                            {
                                "valueString": "Unknown",
                                "url": "text"
                            }
                        ],
                        "url": "http://hl7.org/fhir/us/core/StructureDefinition/us-core-ethnicity"
                    },
                    {
                        "valueCodeableConcept": {
                            "coding": [
                                {
                                    "system": "urn:oid:1.2.840.114350.1.13.0.1.7.10.698084.130.657370.19999000",
                                    "code": "male",
                                    "display": "male"
                                }
                            ]
                        },
                        "url": "http://open.epic.com/FHIR/StructureDefinition/extension/legal-sex"
                    },
                    {
                        "valueCodeableConcept": {
                            "coding": [
                                {
                                    "system": "urn:oid:1.2.840.114350.1.13.0.1.7.10.698084.130.657370.19999000",
                                    "code": "male",
                                    "display": "male"
                                }
                            ]
                        },
                        "url": "http://open.epic.com/FHIR/StructureDefinition/extension/sex-for-clinical-use"
                    },
                    {
                        "valueCode": "M",
                        "url": "http://hl7.org/fhir/us/core/StructureDefinition/us-core-birthsex"
                    }
                ],
                "identifier": [
                    {
                        "use": "usual",
                        "system": "urn:oid:2.16.840.1.113883.4.1",
                        "value": "111-38-9835"
                    },
                    {
                        "use": "usual",
                        "type": {
                            "text": "CEID"
                        },
                        "system": "urn:epic:apporchard.curprod",
                        "value": "AO1DFZX92DZFRJK"
                    },
                    {
                        "use": "usual",
                        "type": {
                            "text": "EPIC"
                        },
                        "system": "urn:oid:1.2.840.114350.1.1",
                        "value": "E3088"
                    },
                    {
                        "use": "usual",
                        "type": {
                            "text": "EXTERNAL"
                        },
                        "system": "urn:oid:1.2.840.114350.1.13.0.1.7.2.698084",
                        "value": "Z4979"
                    },
                    {
                        "use": "usual",
                        "type": {
                            "text": "FHIR"
                        },
                        "system": "http://open.epic.com/FHIR/StructureDefinition/patient-dstu2-fhir-id",
                        "value": "T-EUK9W70Z4A3UaXa1i1oWsMAX16XOBzHR3USGndIxYEB"
                    },
                    {
                        "use": "usual",
                        "type": {
                            "text": "FHIR STU3"
                        },
                        "system": "http://open.epic.com/FHIR/StructureDefinition/patient-fhir-id",
                        "value": "e-oM0jGCeUgAHF7bTfNWXzw3"
                    },
                    {
                        "use": "usual",
                        "type": {
                            "text": "INTERNAL"
                        },
                        "system": "urn:oid:1.2.840.114350.1.13.0.1.7.2.698084",
                        "value": "     Z4979"
                    },
                    {
                        "use": "usual",
                        "type": {
                            "text": "MRN"
                        },
                        "system": "urn:oid:1.2.840.114350.1.13.0.1.7.5.737384.14",
                        "value": "202838"
                    }
                ],
                "active": true,
                "name": [
                    {
                        "use": "official",
                        "text": "Len Txpq Liver",
                        "family": "Liver",
                        "given": [
                            "Len",
                            "Txpq"
                        ]
                    },
                    {
                        "use": "usual",
                        "text": "Len Txpq Liver",
                        "family": "Liver",
                        "given": [
                            "Len",
                            "Txpq"
                        ]
                    }
                ],
                "gender": "male",
                "birthDate": "1967-04-07",
                "deceasedBoolean": false,
                "managingOrganization": {
                    "reference": "Organization/enRyWnSP963FYDpoks4NHOA3",
                    "display": "Epic Hospital System"
                }
            },
            "search": {
                "mode": "include"
            }
        },
        {
            "link": [
                {
                    "relation": "self",
                    "url": "https://appmarket.epic.com/interconnect-amcurprd-oauth/api/FHIR/R4/EpisodeOfCare/eDBWouZInJAfS7BYbJJtBfA3"
                }
            ],
            "fullUrl": "https://appmarket.epic.com/interconnect-amcurprd-oauth/api/FHIR/R4/EpisodeOfCare/eDBWouZInJAfS7BYbJJtBfA3",
            "resource": {
                "resourceType": "EpisodeOfCare",
                "id": "eDBWouZInJAfS7BYbJJtBfA3",
                "extension": [
                    {
                        "valueString": "Liver Episode (Transplanted  2/16/2010) - Transplant 1 ",
                        "url": "http://open.epic.com/FHIR/StructureDefinition/extension/episode-name"
                    },
                    {
                        "valueCodeableConcept": {
                            "coding": [
                                {
                                    "system": "urn:oid:1.2.840.114350.1.72.1.7.7.10.728366.30035",
                                    "code": "2",
                                    "display": "Recipient"
                                }
                            ],
                            "text": "Recipient"
                        },
                        "url": "http://open.epic.com/FHIR/StructureDefinition/extension/transplant-donor-or-recipient"
                    },
                    {
                        "extension": [
                            {
                                "valueCodeableConcept": {
                                    "coding": [
                                        {
                                            "system": "urn:oid:1.2.840.114350.1.72.1.7.7.10.728366.30030",
                                            "code": "8",
                                            "display": "Liver"
                                        }
                                    ],
                                    "text": "Liver"
                                },
                                "url": "organ-class"
                            },
                            {
                                "valueReference": {
                                    "reference": "Practitioner/e4fBRdwCD6bWDI76z9Bn9WA3",
                                    "type": "Practitioner",
                                    "display": "Coordinator Phoenix, RN"
                                },
                                "url": "coordinator"
                            }
                        ],
                        "url": "http://open.epic.com/FHIR/StructureDefinition/extension/transplant-organ-coordinator"
                    },
                    {
                        "extension": [
                            {
                                "valueCodeableConcept": {
                                    "coding": [
                                        {
                                            "system": "urn:oid:1.2.840.114350.1.72.1.7.7.10.728366.30105",
                                            "code": "50",
                                            "display": "Transplanted"
                                        }
                                    ],
                                    "text": "Transplanted"
                                },
                                "url": "phase"
                            },
                            {
                                "valueString": "Active Follow-up",
                                "url": "status"
                            },
                            {
                                "valueDate": "2013-09-25",
                                "url": "effective"
                            }
                        ],
                        "url": "http://open.epic.com/FHIR/StructureDefinition/extension/transplant-phase-status"
                    },
                    {
                        "valueDate": "2013-04-07",
                        "url": "http://open.epic.com/FHIR/StructureDefinition/extension/transplant-event-referral-date"
                    },
                    {
                        "valuePeriod": {
                            "start": "2013-04-07",
                            "end": "2013-04-25"
                        },
                        "url": "http://open.epic.com/FHIR/StructureDefinition/extension/transplant-event-evaluation"
                    },
                    {
                        "valueDate": "2013-04-25",
                        "url": "http://open.epic.com/FHIR/StructureDefinition/extension/transplant-event-waitlist-date"
                    },
                    {
                        "valueDate": "2013-09-24",
                        "url": "http://open.epic.com/FHIR/StructureDefinition/extension/transplant-event-admission-date"
                    },
                    {
                        "valueDate": "2013-09-25",
                        "url": "http://open.epic.com/FHIR/StructureDefinition/extension/transplant-event-transplanted-date"
                    },
                    {
                        "valueString": "University of Wisconsin Hospital and Clinics (Madison, WI)",
                        "url": "http://open.epic.com/FHIR/StructureDefinition/extension/transplant-center"
                    },
                    {
                        "valueReference": {
                            "reference": "BodyStructure/eMPi3CzCl5Vv3S4Da1oszOmQl8PVx65SpOTpbExPFRHRby-5MWmfOvkY.Uf7niLDr3",
                            "type": "BodyStructure",
                            "display": "Liver"
                        },
                        "url": "http://open.epic.com/FHIR/StructureDefinition/extension/transplant-organ"
                    }
                ],
                "status": "active",
                "type": [
                    {
                        "coding": [
                            {
                                "system": "urn:oid:1.2.840.114350.1.13.0.1.7.2.726668",
                                "code": "49",
                                "display": "Transplant"
                            },
                            {
                                "system": "urn:oid:1.2.840.114350.1.13.0.1.7.4.726668.130",
                                "code": "4",
                                "display": "Transplant"
                            }
                        ],
                        "text": "Transplant"
                    }
                ],
                "diagnosis": [
                    {
                        "condition": {
                            "reference": "Condition/eIIc6xf5Luu1P0D2CGlUAqg3",
                            "type": "Condition",
                            "display": "Hyperglycemia (Resolved)"
                        }
                    },
                    {
                        "condition": {
                            "reference": "Condition/eOooiwcQD6qX6zMaDCa.NuQ3",
                            "type": "Condition",
                            "display": "Transplanted organ rejection"
                        }
                    },
                    {
                        "condition": {
                            "reference": "Condition/e2kLzDVIrxRtj1R.X42Ph2g3",
                            "type": "Condition",
                            "display": "Diabetes mellitus (CMS/HCC) (Resolved)"
                        }
                    }
                ],
                "patient": {
                    "reference": "Patient/e-oM0jGCeUgAHF7bTfNWXzw3",
                    "type": "Patient",
                    "display": "Liver, Len Txpq"
                },
                "period": {
                    "start": "2013-04-07"
                },
                "team": [
                    {
                        "reference": "CareTeam/eqDPZETGCKPNLg3M.l6e25cOh01WqeJwhCQOEmvIIw3A3",
                        "type": "CareTeam"
                    }
                ]
            },
            "search": {
                "mode": "include"
            }
        }
    ]
}