{
    "resourceType": "Bundle",
    "type": "searchset",
    "total": 48,
    "link": [
        {
            "relation": "self",
            "url": "https://appmarket.epic.com/interconnect-amcurprd-oauth/api/FHIR/R4/Encounter?_include=Encounter:condition&_include=Encounter:episodeOfCare&_include=Encounter:partOf&_include=Encounter:subject&_format=json&patient=eoGtESJpJi1m8a8UpYH-H2Q3"
        }
    ],
    "entry": [
        {
            "link": [
                {
                    "relation": "self",
                    "url": "https://appmarket.epic.com/interconnect-amcurprd-oauth/api/FHIR/R4/Encounter/egEiLL7HeAKr5dDVC3hN1LQ3"
                }
            ],
            "fullUrl": "https://appmarket.epic.com/interconnect-amcurprd-oauth/api/FHIR/R4/Encounter/egEiLL7HeAKr5dDVC3hN1LQ3",
            "resource": {
                "resourceType": "Encounter",
                "id": "egEiLL7HeAKr5dDVC3hN1LQ3",
                "identifier": [
                    {
                        "use": "usual",
                        "system": "urn:oid:1.2.840.114350.1.13.0.1.7.3.698084.8",
                        "value": "6230"
                    }
                ],
                "status": "in-progress",
                "class": {
                    "system": "urn:oid:1.2.840.114350.1.72.1.7.7.10.696784.13260",
                    "code": "3",
                    "display": "Admission"
                },
                "type": [
                    {
                        "coding": [
                            {
                                "system": "urn:oid:1.2.840.114350.1.13.0.1.7.10.698084.10110",
                                "code": "101",
                                "display": "Inpatient"
                            }
                        ],
                        "text": "Inpatient"
                    },
                    {
                        "coding": [
                            {
                                "system": "urn:oid:1.2.840.114350.1.13.0.1.7.10.698084.30",
                                "code": "3",
                                "display": "Hospital Encounter"
                            }
                        ],
                        "text": "Hospital Encounter"
                    },
                    {
                        "coding": [
                            {
                                "system": "urn:oid:1.2.840.114350.1.13.0.1.7.10.698084.18875",
                                "code": "3",
                                "display": "Elective"
                            }
                        ],
                        "text": "Elective"
                    }
                ],
                "serviceType": {
                    "coding": [
                        {
                            "system": "urn:oid:1.2.840.114350.1.13.0.1.7.10.698084.18886",
                            "code": "117",
                            "display": "Obstetrics"
                        }
                    ],
                    "text": "Obstetrics"
                },
                "subject": {
                    "reference": "Patient/eoGtESJpJi1m8a8UpYH-H2Q3",
                    "display": "Obstetrics, Molly Delivered"
                },
                "episodeOfCare": [
                    {
                        "reference": "EpisodeOfCare/eclvN-x29koEWoqZBdf3G9w3",
                        "type": "EpisodeOfCare",
                        "display": "Pregnancy 1"
                    },
                    {
                        "reference": "EpisodeOfCare/eWFLuDbV9hBWTeh8AbNHheQ3",
                        "type": "EpisodeOfCare",
                        "display": "First Pregnancy"
                    }
                ],
                "participant": [
                    {
                        "type": [
                            {
                                "coding": [
                                    {
                                        "system": "http://hl7.org/fhir/v3/ParticipationType",
                                        "code": "ADM",
                                        "display": "admitter"
                                    }
                                ],
                                "text": "admitter"
                            }
                        ],
                        "individual": {
                            "reference": "Practitioner/eHdBpsN5eOyFCM2cUPgGuTw3",
                            "type": "Practitioner",
                            "display": "Physician Obstetrics, MD"
                        }
                    },
                    {
                        "type": [
                            {
                                "coding": [
                                    {
                                        "system": "http://hl7.org/fhir/v3/ParticipationType",
                                        "code": "ATND",
                                        "display": "attender"
                                    }
                                ],
                                "text": "attender"
                            }
                        ],
                        "period": {
                            "start": "2011-07-20T21:02:35Z"
                        },
                        "individual": {
                            "reference": "Practitioner/eHdBpsN5eOyFCM2cUPgGuTw3",
                            "type": "Practitioner",
                            "display": "Physician Obstetrics, MD"
                        }
                    }
                ],
                "period": {
                    "start": "2014-09-05T21:02:00Z"
                },
                "account": [
                    {
                        "identifier": {
                            "system": "urn:oid:1.2.840.114350.1.13.0.1.7.2.726582",
                            "value": "579"
                        },
                        "display": "OBSTETRICS,MOLLY DELIVERED"
                    }
                ],
                "hospitalization": {
                    "extension": [
                        {
                            "valueDateTime": "2014-09-06T00:00:00Z",
                            "url": "http://open.epic.com/FHIR/StructureDefinition/extension/ip-admit-datetime"
                        },
                        {
                            "valueDateTime": "2014-09-05T21:02:35Z",
                            "url": "http://open.epic.com/FHIR/StructureDefinition/extension/observation-datetime"
                        }
                    ]
                },
                "location": [
                    {
                        "location": {
                            "reference": "Location/etk-blkZr.2.mHyBW6isfhjiMf0FMRauHE.XP765i1rY3",
                            "display": "EMH Labor and Delivery"
                        },
                        "period": {
                            "start": "2014-09-05T21:02:00Z",
                            "end": "2014-09-06T16:33:00Z"
                        }
                    },
                    {
                        "location": {
                            "reference": "Location/etk-blkZr.2.mHyBW6isfhjiMf0FMRauHE.XP765i1rY3",
                            "display": "EMH Labor and Delivery"
                        },
                        "period": {
                            "start": "2014-09-06T16:33:00Z"
                        }
                    },
                    {
                        "location": {
                            "reference": "Location/etk-blkZr.2.mHyBW6isfhjiMf0FMRauHE.XP765i1rY3",
                            "display": "EMH Labor and Delivery"
                        }
                    },
                    {
                        "location": {
                            "reference": "Location/eQSOrLdbVrMRc68KBcTBG4A3",
                            "display": "Epic Hospital System"
                        }
                    },
                    {
                        "location": {
                            "reference": "Location/eNVwnZTbKVGA3Lfjb56dGdQ3",
                            "display": "L&D - 326"
                        },
                        "physicalType": {
                            "coding": [
                                {
                                    "system": "http://terminology.hl7.org/CodeSystem/location-physical-type",
                                    "code": "ro",
                                    "display": "Room"
                                }
                            ],
                            "text": "Room"
                        }
                    },
                    {
                        "location": {
                            "identifier": {
                                "system": "urn:oid:1.2.840.114350.1.13.0.1.7.2.666968",
                                "value": "558"
                            },
                            "display": "326-01"
                        },
                        "physicalType": {
                            "coding": [
                                {
                                    "system": "http://terminology.hl7.org/CodeSystem/location-physical-type",
                                    "code": "bd",
                                    "display": "Bed"
                                }
                            ],
                            "text": "Bed"
                        }
                    }
                ]
            },
            "search": {
                "mode": "match"
            }
        },
        {
            "link": [
                {
                    "relation": "self",
                    "url": "https://appmarket.epic.com/interconnect-amcurprd-oauth/api/FHIR/R4/Encounter/eWlK.tsEyJ0-nO.VpsldeWQ3"
                }
            ],
            "fullUrl": "https://appmarket.epic.com/interconnect-amcurprd-oauth/api/FHIR/R4/Encounter/eWlK.tsEyJ0-nO.VpsldeWQ3",
            "resource": {
                "resourceType": "Encounter",
                "id": "eWlK.tsEyJ0-nO.VpsldeWQ3",
                "identifier": [
                    {
                        "use": "usual",
                        "system": "urn:oid:1.2.840.114350.1.13.0.1.7.3.698084.8",
                        "value": "6231"
                    }
                ],
                "status": "planned",
                "class": {
                    "system": "urn:oid:1.2.840.114350.1.72.1.7.7.10.696784.13260",
                    "code": "3",
                    "display": "Admission"
                },
                "type": [
                    {
                        "coding": [
                            {
                                "system": "urn:oid:1.2.840.114350.1.13.0.1.7.10.698084.30",
                                "code": "3",
                                "display": "Hospital Encounter"
                            }
                        ],
                        "text": "Hospital Encounter"
                    }
                ],
                "subject": {
                    "reference": "Patient/eoGtESJpJi1m8a8UpYH-H2Q3",
                    "display": "Obstetrics, Molly Delivered"
                },
                "episodeOfCare": [
                    {
                        "reference": "EpisodeOfCare/eWFLuDbV9hBWTeh8AbNHheQ3",
                        "type": "EpisodeOfCare",
                        "display": "First Pregnancy"
                    }
                ],
                "period": {
                    "start": "2011-07-20"
                },
                "location": [
                    {
                        "location": {
                            "reference": "Location/etk-blkZr.2.mHyBW6isfhjiMf0FMRauHE.XP765i1rY3",
                            "display": "EMH Labor and Delivery"
                        }
                    },
                    {
                        "location": {
                            "reference": "Location/etk-blkZr.2.mHyBW6isfhjiMf0FMRauHE.XP765i1rY3",
                            "display": "EMH Labor and Delivery"
                        }
                    },
                    {
                        "location": {
                            "reference": "Location/eQSOrLdbVrMRc68KBcTBG4A3",
                            "display": "Epic Hospital System"
                        }
                    }
                ]
            },
            "search": {
                "mode": "match"
            }
        },
        {
            "link": [
                {
                    "relation": "self",
                    "url": "https://appmarket.epic.com/interconnect-amcurprd-oauth/api/FHIR/R4/Encounter/edMy-I.KuozdMlw9UkeEdyg3"
                }
            ],
            "fullUrl": "https://appmarket.epic.com/interconnect-amcurprd-oauth/api/FHIR/R4/Encounter/edMy-I.KuozdMlw9UkeEdyg3",
            "resource": {
                "resourceType": "Encounter",
                "id": "edMy-I.KuozdMlw9UkeEdyg3",
                "identifier": [
                    {
                        "use": "usual",
                        "system": "urn:oid:1.2.840.114350.1.13.0.1.7.3.698084.8",
                        "value": "6232"
                    }
                ],
                "status": "planned",
                "class": {
                    "system": "urn:oid:1.2.840.114350.1.72.1.7.7.10.696784.13260",
                    "code": "3",
                    "display": "Admission"
                },
                "type": [
                    {
                        "coding": [
                            {
                                "system": "urn:oid:1.2.840.114350.1.13.0.1.7.10.698084.30",
                                "code": "3",
                                "display": "Hospital Encounter"
                            }
                        ],
                        "text": "Hospital Encounter"
                    }
                ],
                "subject": {
                    "reference": "Patient/eoGtESJpJi1m8a8UpYH-H2Q3",
                    "display": "Obstetrics, Molly Delivered"
                },
                "episodeOfCare": [
                    {
                        "reference": "EpisodeOfCare/eWFLuDbV9hBWTeh8AbNHheQ3",
                        "type": "EpisodeOfCare",
                        "display": "First Pregnancy"
                    }
                ],
                "period": {
                    "start": "2011-07-20"
                },
                "location": [
                    {
                        "location": {
                            "reference": "Location/etk-blkZr.2.mHyBW6isfhjiMf0FMRauHE.XP765i1rY3",
                            "display": "EMH Labor and Delivery"
                        }
                    },
                    {
                        "location": {
                            "reference": "Location/etk-blkZr.2.mHyBW6isfhjiMf0FMRauHE.XP765i1rY3",
                            "display": "EMH Labor and Delivery"
                        }
                    },
                    {
                        "location": {
                            "reference": "Location/eQSOrLdbVrMRc68KBcTBG4A3",
                            "display": "Epic Hospital System"
                        }
                    }
                ]
            },
            "search": {
                "mode": "match"
            }
        },
        {
            "link": [
                {
                    "relation": "self",
                    "url": "https://appmarket.epic.com/interconnect-amcurprd-oauth/api/FHIR/R4/Encounter/eDgYuX19wDmSw5t0unoGb6Q3"
                }
            ],
            "fullUrl": "https://appmarket.epic.com/interconnect-amcurprd-oauth/api/FHIR/R4/Encounter/eDgYuX19wDmSw5t0unoGb6Q3",
            "resource": {
                "resourceType": "Encounter",
                "id": "eDgYuX19wDmSw5t0unoGb6Q3",
                "identifier": [
                    {
                        "use": "usual",
                        "system": "urn:oid:1.2.840.114350.1.13.0.1.7.3.698084.8",
                        "value": "6233"
                    }
                ],
                "status": "planned",
                "class": {
                    "system": "urn:oid:1.2.840.114350.1.72.1.7.7.10.696784.13260",
                    "code": "3",
                    "display": "Admission"
                },
                "type": [
                    {
                        "coding": [
                            {
                                "system": "urn:oid:1.2.840.114350.1.13.0.1.7.10.698084.30",
                                "code": "3",
                                "display": "Hospital Encounter"
                            }
                        ],
                        "text": "Hospital Encounter"
                    }
                ],
                "subject": {
                    "reference": "Patient/eoGtESJpJi1m8a8UpYH-H2Q3",
                    "display": "Obstetrics, Molly Delivered"
                },
                "episodeOfCare": [
                    {
                        "reference": "EpisodeOfCare/eWFLuDbV9hBWTeh8AbNHheQ3",
                        "type": "EpisodeOfCare",
                        "display": "First Pregnancy"
                    }
                ],
                "period": {
                    "start": "2011-07-20"
                },
                "location": [
                    {
                        "location": {
                            "reference": "Location/etk-blkZr.2.mHyBW6isfhjiMf0FMRauHE.XP765i1rY3",
                            "display": "EMH Labor and Delivery"
                        }
                    },
                    {
                        "location": {
                            "reference": "Location/etk-blkZr.2.mHyBW6isfhjiMf0FMRauHE.XP765i1rY3",
                            "display": "EMH Labor and Delivery"
                        }
                    },
                    {
                        "location": {
                            "reference": "Location/eQSOrLdbVrMRc68KBcTBG4A3",
                            "display": "Epic Hospital System"
                        }
                    }
                ]
            },
            "search": {
                "mode": "match"
            }
        },
        {
            "link": [
                {
                    "relation": "self",
                    "url": "https://appmarket.epic.com/interconnect-amcurprd-oauth/api/FHIR/R4/Encounter/eix.uMnus0h2sDgLwI3JXTQ3"
                }
            ],
            "fullUrl": "https://appmarket.epic.com/interconnect-amcurprd-oauth/api/FHIR/R4/Encounter/eix.uMnus0h2sDgLwI3JXTQ3",
            "resource": {
                "resourceType": "Encounter",
                "id": "eix.uMnus0h2sDgLwI3JXTQ3",
                "identifier": [
                    {
                        "use": "usual",
                        "system": "urn:oid:1.2.840.114350.1.13.0.1.7.3.698084.8",
                        "value": "6234"
                    }
                ],
                "status": "in-progress",
                "class": {
                    "system": "urn:oid:1.2.840.114350.1.72.1.7.7.10.696784.13260",
                    "code": "13",
                    "display": "Support OP Encounter"
                },
                "type": [
                    {
                        "coding": [
                            {
                                "system": "urn:oid:1.2.840.114350.1.13.0.1.7.10.698084.30",
                                "code": "1200",
                                "display": "Routine Prenatal"
                            }
                        ],
                        "text": "Routine Prenatal"
                    }
                ],
                "subject": {
                    "reference": "Patient/eoGtESJpJi1m8a8UpYH-H2Q3",
                    "display": "Obstetrics, Molly Delivered"
                },
                "episodeOfCare": [
                    {
                        "reference": "EpisodeOfCare/eWFLuDbV9hBWTeh8AbNHheQ3",
                        "type": "EpisodeOfCare",
                        "display": "First Pregnancy"
                    }
                ],
                "period": {
                    "start": "2011-04-02",
                    "end": "2011-04-02"
                },
                "location": [
                    {
                        "location": {
                            "reference": "Location/eBDEYzYrPL0Gg9ikW76NBzgtwO-F2yBytQjo9cNTYfZ83",
                            "display": "EMC OBGYN Clinic"
                        }
                    }
                ]
            },
            "search": {
                "mode": "match"
            }
        },
        {
            "link": [
                {
                    "relation": "self",
                    "url": "https://appmarket.epic.com/interconnect-amcurprd-oauth/api/FHIR/R4/Encounter/eIhm.8mSf6gg60O7QcmZPeA3"
                }
            ],
            "fullUrl": "https://appmarket.epic.com/interconnect-amcurprd-oauth/api/FHIR/R4/Encounter/eIhm.8mSf6gg60O7QcmZPeA3",
            "resource": {
                "resourceType": "Encounter",
                "id": "eIhm.8mSf6gg60O7QcmZPeA3",
                "identifier": [
                    {
                        "use": "usual",
                        "system": "urn:oid:1.2.840.114350.1.13.0.1.7.3.698084.8",
                        "value": "6236"
                    }
                ],
                "status": "finished",
                "class": {
                    "system": "urn:oid:1.2.840.114350.1.72.1.7.7.10.696784.13260",
                    "code": "13",
                    "display": "Support OP Encounter"
                },
                "type": [
                    {
                        "coding": [
                            {
                                "system": "urn:oid:1.2.840.114350.1.13.0.1.7.10.698084.30",
                                "code": "1200",
                                "display": "Routine Prenatal"
                            }
                        ],
                        "text": "Routine Prenatal"
                    }
                ],
                "subject": {
                    "reference": "Patient/eoGtESJpJi1m8a8UpYH-H2Q3",
                    "display": "Obstetrics, Molly Delivered"
                },
                "episodeOfCare": [
                    {
                        "reference": "EpisodeOfCare/eWFLuDbV9hBWTeh8AbNHheQ3",
                        "type": "EpisodeOfCare",
                        "display": "First Pregnancy"
                    }
                ],
                "period": {
                    "start": "2011-03-23",
                    "end": "2011-03-23"
                },
                "location": [
                    {
                        "location": {
                            "reference": "Location/eBDEYzYrPL0Gg9ikW76NBzgtwO-F2yBytQjo9cNTYfZ83",
                            "display": "EMC OBGYN Clinic"
                        }
                    }
                ]
            },
            "search": {
                "mode": "match"
            }
        },
        {
            "link": [
                {
                    "relation": "self",
                    "url": "https://appmarket.epic.com/interconnect-amcurprd-oauth/api/FHIR/R4/Encounter/eQwEfXtsA3qk3gLX7.lko4Q3"
                }
            ],
            "fullUrl": "https://appmarket.epic.com/interconnect-amcurprd-oauth/api/FHIR/R4/Encounter/eQwEfXtsA3qk3gLX7.lko4Q3",
            "resource": {
                "resourceType": "Encounter",
                "id": "eQwEfXtsA3qk3gLX7.lko4Q3",
                "identifier": [
                    {
                        "use": "usual",
                        "system": "urn:oid:1.2.840.114350.1.13.0.1.7.3.698084.8",
                        "value": "6238"
                    }
                ],
                "status": "finished",
                "class": {
                    "system": "urn:oid:1.2.840.114350.1.72.1.7.7.10.696784.13260",
                    "code": "13",
                    "display": "Support OP Encounter"
                },
                "type": [
                    {
                        "coding": [
                            {
                                "system": "urn:oid:1.2.840.114350.1.13.0.1.7.10.698084.30",
                                "code": "1200",
                                "display": "Routine Prenatal"
                            }
                        ],
                        "text": "Routine Prenatal"
                    }
                ],
                "subject": {
                    "reference": "Patient/eoGtESJpJi1m8a8UpYH-H2Q3",
                    "display": "Obstetrics, Molly Delivered"
                },
                "episodeOfCare": [
                    {
                        "reference": "EpisodeOfCare/eWFLuDbV9hBWTeh8AbNHheQ3",
                        "type": "EpisodeOfCare",
                        "display": "First Pregnancy"
                    }
                ],
                "period": {
                    "start": "2011-03-09",
                    "end": "2011-03-09"
                },
                "location": [
                    {
                        "location": {
                            "reference": "Location/eBDEYzYrPL0Gg9ikW76NBzgtwO-F2yBytQjo9cNTYfZ83",
                            "display": "EMC OBGYN Clinic"
                        }
                    }
                ]
            },
            "search": {
                "mode": "match"
            }
        },
        {
            "link": [
                {
                    "relation": "self",
                    "url": "https://appmarket.epic.com/interconnect-amcurprd-oauth/api/FHIR/R4/Encounter/eyK.2.FsRzorHdmIvNOCMrw3"
                }
            ],
            "fullUrl": "https://appmarket.epic.com/interconnect-amcurprd-oauth/api/FHIR/R4/Encounter/eyK.2.FsRzorHdmIvNOCMrw3",
            "resource": {
                "resourceType": "Encounter",
                "id": "eyK.2.FsRzorHdmIvNOCMrw3",
                "identifier": [
                    {
                        "use": "usual",
                        "system": "urn:oid:1.2.840.114350.1.13.0.1.7.3.698084.8",
                        "value": "6240"
                    }
                ],
                "status": "finished",
                "class": {
                    "system": "urn:oid:1.2.840.114350.1.72.1.7.7.10.696784.13260",
                    "code": "13",
                    "display": "Support OP Encounter"
                },
                "type": [
                    {
                        "coding": [
                            {
                                "system": "urn:oid:1.2.840.114350.1.13.0.1.7.10.698084.30",
                                "code": "1200",
                                "display": "Routine Prenatal"
                            }
                        ],
                        "text": "Routine Prenatal"
                    }
                ],
                "subject": {
                    "reference": "Patient/eoGtESJpJi1m8a8UpYH-H2Q3",
                    "display": "Obstetrics, Molly Delivered"
                },
                "episodeOfCare": [
                    {
                        "reference": "EpisodeOfCare/eWFLuDbV9hBWTeh8AbNHheQ3",
                        "type": "EpisodeOfCare",
                        "display": "First Pregnancy"
                    }
                ],
                "period": {
                    "start": "2011-01-11",
                    "end": "2011-01-11"
                },
                "location": [
                    {
                        "location": {
                            "reference": "Location/eBDEYzYrPL0Gg9ikW76NBzgtwO-F2yBytQjo9cNTYfZ83",
                            "display": "EMC OBGYN Clinic"
                        }
                    }
                ]
            },
            "search": {
                "mode": "match"
            }
        },
        {
            "link": [
                {
                    "relation": "self",
                    "url": "https://appmarket.epic.com/interconnect-amcurprd-oauth/api/FHIR/R4/Encounter/eqtYBlk-BNVvCAxqsl6VGvQ3"
                }
            ],
            "fullUrl": "https://appmarket.epic.com/interconnect-amcurprd-oauth/api/FHIR/R4/Encounter/eqtYBlk-BNVvCAxqsl6VGvQ3",
            "resource": {
                "resourceType": "Encounter",
                "id": "eqtYBlk-BNVvCAxqsl6VGvQ3",
                "identifier": [
                    {
                        "use": "usual",
                        "system": "urn:oid:1.2.840.114350.1.13.0.1.7.3.698084.8",
                        "value": "6242"
                    }
                ],
                "status": "finished",
                "class": {
                    "system": "urn:oid:1.2.840.114350.1.72.1.7.7.10.696784.13260",
                    "code": "13",
                    "display": "Support OP Encounter"
                },
                "type": [
                    {
                        "coding": [
                            {
                                "system": "urn:oid:1.2.840.114350.1.13.0.1.7.10.698084.30",
                                "code": "1200",
                                "display": "Routine Prenatal"
                            }
                        ],
                        "text": "Routine Prenatal"
                    }
                ],
                "subject": {
                    "reference": "Patient/eoGtESJpJi1m8a8UpYH-H2Q3",
                    "display": "Obstetrics, Molly Delivered"
                },
                "episodeOfCare": [
                    {
                        "reference": "EpisodeOfCare/eWFLuDbV9hBWTeh8AbNHheQ3",
                        "type": "EpisodeOfCare",
                        "display": "First Pregnancy"
                    }
                ],
                "period": {
                    "start": "2010-11-18",
                    "end": "2010-11-18"
                },
                "location": [
                    {
                        "location": {
                            "reference": "Location/eBDEYzYrPL0Gg9ikW76NBzgtwO-F2yBytQjo9cNTYfZ83",
                            "display": "EMC OBGYN Clinic"
                        }
                    }
                ]
            },
            "search": {
                "mode": "match"
            }
        },
        {
            "link": [
                {
                    "relation": "self",
                    "url": "https://appmarket.epic.com/interconnect-amcurprd-oauth/api/FHIR/R4/Encounter/eJYFEDh.lNm4sxpHmEDvQdA3"
                }
            ],
            "fullUrl": "https://appmarket.epic.com/interconnect-amcurprd-oauth/api/FHIR/R4/Encounter/eJYFEDh.lNm4sxpHmEDvQdA3",
            "resource": {
                "resourceType": "Encounter",
                "id": "eJYFEDh.lNm4sxpHmEDvQdA3",
                "identifier": [
                    {
                        "use": "usual",
                        "system": "urn:oid:1.2.840.114350.1.13.0.1.7.3.698084.8",
                        "value": "6244"
                    }
                ],
                "status": "finished",
                "class": {
                    "system": "urn:oid:1.2.840.114350.1.72.1.7.7.10.696784.13260",
                    "code": "13",
                    "display": "Support OP Encounter"
                },
                "type": [
                    {
                        "coding": [
                            {
                                "system": "urn:oid:1.2.840.114350.1.13.0.1.7.10.698084.30",
                                "code": "1201",
                                "display": "Initial Prenatal"
                            }
                        ],
                        "text": "Initial Prenatal"
                    }
                ],
                "subject": {
                    "reference": "Patient/eoGtESJpJi1m8a8UpYH-H2Q3",
                    "display": "Obstetrics, Molly Delivered"
                },
                "episodeOfCare": [
                    {
                        "reference": "EpisodeOfCare/eWFLuDbV9hBWTeh8AbNHheQ3",
                        "type": "EpisodeOfCare",
                        "display": "First Pregnancy"
                    }
                ],
                "period": {
                    "start": "2010-09-13",
                    "end": "2010-09-13"
                },
                "reasonCode": [
                    {
                        "coding": [
                            {
                                "system": "urn:oid:1.2.840.114350.1.13.0.1.7.2.728286",
                                "code": "120001",
                                "display": "Initial Prenatal Visit"
                            }
                        ],
                        "text": "Initial Prenatal Visit"
                    }
                ],
                "location": [
                    {
                        "location": {
                            "reference": "Location/eBDEYzYrPL0Gg9ikW76NBzgtwO-F2yBytQjo9cNTYfZ83",
                            "display": "EMC OBGYN Clinic"
                        }
                    }
                ]
            },
            "search": {
                "mode": "match"
            }
        },
        {
            "link": [
                {
                    "relation": "self",
                    "url": "https://appmarket.epic.com/interconnect-amcurprd-oauth/api/FHIR/R4/Encounter/ewlHwfL7gB8rZQfKv9NJHaQ3"
                }
            ],
            "fullUrl": "https://appmarket.epic.com/interconnect-amcurprd-oauth/api/FHIR/R4/Encounter/ewlHwfL7gB8rZQfKv9NJHaQ3",
            "resource": {
                "resourceType": "Encounter",
                "id": "ewlHwfL7gB8rZQfKv9NJHaQ3",
                "identifier": [
                    {
                        "use": "usual",
                        "system": "urn:oid:1.2.840.114350.1.13.0.1.7.3.698084.8",
                        "value": "6246"
                    }
                ],
                "status": "unknown",
                "class": {
                    "system": "urn:oid:1.2.840.114350.1.72.1.7.7.10.696784.13260",
                    "code": "13",
                    "display": "Support OP Encounter"
                },
                "subject": {
                    "reference": "Patient/eoGtESJpJi1m8a8UpYH-H2Q3",
                    "display": "Obstetrics, Molly Delivered"
                },
                "period": {
                    "start": "2010-06-08",
                    "end": "2010-06-08"
                }
            },
            "search": {
                "mode": "match"
            }
        },
        {
            "link": [
                {
                    "relation": "self",
                    "url": "https://appmarket.epic.com/interconnect-amcurprd-oauth/api/FHIR/R4/Encounter/e1AmNt7aBYUZTj.UkuozV1g3"
                }
            ],
            "fullUrl": "https://appmarket.epic.com/interconnect-amcurprd-oauth/api/FHIR/R4/Encounter/e1AmNt7aBYUZTj.UkuozV1g3",
            "resource": {
                "resourceType": "Encounter",
                "id": "e1AmNt7aBYUZTj.UkuozV1g3",
                "identifier": [
                    {
                        "use": "usual",
                        "system": "urn:oid:1.2.840.114350.1.13.0.1.7.3.698084.8",
                        "value": "6247"
                    }
                ],
                "status": "unknown",
                "class": {
                    "system": "urn:oid:1.2.840.114350.1.72.1.7.7.10.696784.13260",
                    "code": "13",
                    "display": "Support OP Encounter"
                },
                "subject": {
                    "reference": "Patient/eoGtESJpJi1m8a8UpYH-H2Q3",
                    "display": "Obstetrics, Molly Delivered"
                },
                "period": {
                    "start": "2010-05-13",
                    "end": "2010-05-13"
                }
            },
            "search": {
                "mode": "match"
            }
        },
        {
            "link": [
                {
                    "relation": "self",
                    "url": "https://appmarket.epic.com/interconnect-amcurprd-oauth/api/FHIR/R4/Encounter/eRRgnftTG6PovUG.J.XkwRA3"
                }
            ],
            "fullUrl": "https://appmarket.epic.com/interconnect-amcurprd-oauth/api/FHIR/R4/Encounter/eRRgnftTG6PovUG.J.XkwRA3",
            "resource": {
                "resourceType": "Encounter",
                "id": "eRRgnftTG6PovUG.J.XkwRA3",
                "identifier": [
                    {
                        "use": "usual",
                        "system": "urn:oid:1.2.840.114350.1.13.0.1.7.3.698084.8",
                        "value": "6248"
                    }
                ],
                "status": "unknown",
                "class": {
                    "system": "urn:oid:1.2.840.114350.1.72.1.7.7.10.696784.13260",
                    "code": "13",
                    "display": "Support OP Encounter"
                },
                "subject": {
                    "reference": "Patient/eoGtESJpJi1m8a8UpYH-H2Q3",
                    "display": "Obstetrics, Molly Delivered"
                },
                "period": {
                    "start": "2010-03-14",
                    "end": "2010-03-14"
                }
            },
            "search": {
                "mode": "match"
            }
        },
        {
            "link": [
                {
                    "relation": "self",
                    "url": "https://appmarket.epic.com/interconnect-amcurprd-oauth/api/FHIR/R4/Encounter/eOQiYghqcXgHlUKslDpn4Kw3"
                }
            ],
            "fullUrl": "https://appmarket.epic.com/interconnect-amcurprd-oauth/api/FHIR/R4/Encounter/eOQiYghqcXgHlUKslDpn4Kw3",
            "resource": {
                "resourceType": "Encounter",
                "id": "eOQiYghqcXgHlUKslDpn4Kw3",
                "identifier": [
                    {
                        "use": "usual",
                        "system": "urn:oid:1.2.840.114350.1.13.0.1.7.3.698084.8",
                        "value": "6249"
                    }
                ],
                "status": "unknown",
                "class": {
                    "system": "urn:oid:1.2.840.114350.1.72.1.7.7.10.696784.13260",
                    "code": "13",
                    "display": "Support OP Encounter"
                },
                "subject": {
                    "reference": "Patient/eoGtESJpJi1m8a8UpYH-H2Q3",
                    "display": "Obstetrics, Molly Delivered"
                },
                "period": {
                    "start": "2010-03-04",
                    "end": "2010-03-04"
                }
            },
            "search": {
                "mode": "match"
            }
        },
        {
            "link": [
                {
                    "relation": "self",
                    "url": "https://appmarket.epic.com/interconnect-amcurprd-oauth/api/FHIR/R4/Encounter/eF3g-ooc1rju.gOya71YNeg3"
                }
            ],
            "fullUrl": "https://appmarket.epic.com/interconnect-amcurprd-oauth/api/FHIR/R4/Encounter/eF3g-ooc1rju.gOya71YNeg3",
            "resource": {
                "resourceType": "Encounter",
                "id": "eF3g-ooc1rju.gOya71YNeg3",
                "identifier": [
                    {
                        "use": "usual",
                        "system": "urn:oid:1.2.840.114350.1.13.0.1.7.3.698084.8",
                        "value": "6250"
                    }
                ],
                "status": "unknown",
                "class": {
                    "system": "urn:oid:1.2.840.114350.1.72.1.7.7.10.696784.13260",
                    "code": "13",
                    "display": "Support OP Encounter"
                },
                "subject": {
                    "reference": "Patient/eoGtESJpJi1m8a8UpYH-H2Q3",
                    "display": "Obstetrics, Molly Delivered"
                },
                "period": {
                    "start": "2010-03-04",
                    "end": "2010-03-04"
                }
            },
            "search": {
                "mode": "match"
            }
        },
        {
            "link": [
                {
                    "relation": "self",
                    "url": "https://appmarket.epic.com/interconnect-amcurprd-oauth/api/FHIR/R4/Encounter/eHAbPnQDpQFazGlps39Yu2A3"
                }
            ],
            "fullUrl": "https://appmarket.epic.com/interconnect-amcurprd-oauth/api/FHIR/R4/Encounter/eHAbPnQDpQFazGlps39Yu2A3",
            "resource": {
                "resourceType": "Encounter",
                "id": "eHAbPnQDpQFazGlps39Yu2A3",
                "identifier": [
                    {
                        "use": "usual",
                        "system": "urn:oid:1.2.840.114350.1.13.0.1.7.3.698084.8",
                        "value": "6251"
                    }
                ],
                "status": "unknown",
                "class": {
                    "system": "urn:oid:1.2.840.114350.1.72.1.7.7.10.696784.13260",
                    "code": "13",
                    "display": "Support OP Encounter"
                },
                "subject": {
                    "reference": "Patient/eoGtESJpJi1m8a8UpYH-H2Q3",
                    "display": "Obstetrics, Molly Delivered"
                },
                "period": {
                    "start": "2010-03-04",
                    "end": "2010-03-04"
                }
            },
            "search": {
                "mode": "match"
            }
        },
        {
            "link": [
                {
                    "relation": "self",
                    "url": "https://appmarket.epic.com/interconnect-amcurprd-oauth/api/FHIR/R4/Encounter/e1-gqIVoJLCGP3QlnV0zLzA3"
                }
            ],
            "fullUrl": "https://appmarket.epic.com/interconnect-amcurprd-oauth/api/FHIR/R4/Encounter/e1-gqIVoJLCGP3QlnV0zLzA3",
            "resource": {
                "resourceType": "Encounter",
                "id": "e1-gqIVoJLCGP3QlnV0zLzA3",
                "identifier": [
                    {
                        "use": "usual",
                        "system": "urn:oid:1.2.840.114350.1.13.0.1.7.3.698084.8",
                        "value": "6252"
                    }
                ],
                "status": "unknown",
                "class": {
                    "system": "urn:oid:1.2.840.114350.1.72.1.7.7.10.696784.13260",
                    "code": "13",
                    "display": "Support OP Encounter"
                },
                "subject": {
                    "reference": "Patient/eoGtESJpJi1m8a8UpYH-H2Q3",
                    "display": "Obstetrics, Molly Delivered"
                },
                "period": {
                    "start": "2010-03-04",
                    "end": "2010-03-04"
                }
            },
            "search": {
                "mode": "match"
            }
        },
        {
            "link": [
                {
                    "relation": "self",
                    "url": "https://appmarket.epic.com/interconnect-amcurprd-oauth/api/FHIR/R4/Encounter/ee5AjQwVVSJtCVPS69xB9fA3"
                }
            ],
            "fullUrl": "https://appmarket.epic.com/interconnect-amcurprd-oauth/api/FHIR/R4/Encounter/ee5AjQwVVSJtCVPS69xB9fA3",
            "resource": {
                "resourceType": "Encounter",
                "id": "ee5AjQwVVSJtCVPS69xB9fA3",
                "identifier": [
                    {
                        "use": "usual",
                        "system": "urn:oid:1.2.840.114350.1.13.0.1.7.3.698084.8",
                        "value": "6253"
                    }
                ],
                "status": "unknown",
                "class": {
                    "system": "urn:oid:1.2.840.114350.1.72.1.7.7.10.696784.13260",
                    "code": "13",
                    "display": "Support OP Encounter"
                },
                "subject": {
                    "reference": "Patient/eoGtESJpJi1m8a8UpYH-H2Q3",
                    "display": "Obstetrics, Molly Delivered"
                },
                "period": {
                    "start": "2009-11-15",
                    "end": "2009-11-15"
                }
            },
            "search": {
                "mode": "match"
            }
        },
        {
            "link": [
                {
                    "relation": "self",
                    "url": "https://appmarket.epic.com/interconnect-amcurprd-oauth/api/FHIR/R4/Encounter/eHwoi0k3zoYP8H1PR3NVr8g3"
                }
            ],
            "fullUrl": "https://appmarket.epic.com/interconnect-amcurprd-oauth/api/FHIR/R4/Encounter/eHwoi0k3zoYP8H1PR3NVr8g3",
            "resource": {
                "resourceType": "Encounter",
                "id": "eHwoi0k3zoYP8H1PR3NVr8g3",
                "identifier": [
                    {
                        "use": "usual",
                        "system": "urn:oid:1.2.840.114350.1.13.0.1.7.3.698084.8",
                        "value": "6254"
                    }
                ],
                "status": "unknown",
                "class": {
                    "system": "urn:oid:1.2.840.114350.1.72.1.7.7.10.696784.13260",
                    "code": "13",
                    "display": "Support OP Encounter"
                },
                "subject": {
                    "reference": "Patient/eoGtESJpJi1m8a8UpYH-H2Q3",
                    "display": "Obstetrics, Molly Delivered"
                },
                "period": {
                    "start": "2009-11-05",
                    "end": "2009-11-05"
                }
            },
            "search": {
                "mode": "match"
            }
        },
        {
            "link": [
                {
                    "relation": "self",
                    "url": "https://appmarket.epic.com/interconnect-amcurprd-oauth/api/FHIR/R4/Encounter/eHb6lgQZsswVEdHRafsIfcg3"
                }
            ],
            "fullUrl": "https://appmarket.epic.com/interconnect-amcurprd-oauth/api/FHIR/R4/Encounter/eHb6lgQZsswVEdHRafsIfcg3",
            "resource": {
                "resourceType": "Encounter",
                "id": "eHb6lgQZsswVEdHRafsIfcg3",
                "identifier": [
                    {
                        "use": "usual",
                        "system": "urn:oid:1.2.840.114350.1.13.0.1.7.3.698084.8",
                        "value": "6255"
                    }
                ],
                "status": "unknown",
                "class": {
                    "system": "urn:oid:1.2.840.114350.1.72.1.7.7.10.696784.13260",
                    "code": "13",
                    "display": "Support OP Encounter"
                },
                "subject": {
                    "reference": "Patient/eoGtESJpJi1m8a8UpYH-H2Q3",
                    "display": "Obstetrics, Molly Delivered"
                },
                "period": {
                    "start": "2009-11-05",
                    "end": "2009-11-05"
                }
            },
            "search": {
                "mode": "match"
            }
        },
        {
            "link": [
                {
                    "relation": "self",
                    "url": "https://appmarket.epic.com/interconnect-amcurprd-oauth/api/FHIR/R4/Encounter/ebCexl6mgZoD2LbglAp.nSw3"
                }
            ],
            "fullUrl": "https://appmarket.epic.com/interconnect-amcurprd-oauth/api/FHIR/R4/Encounter/ebCexl6mgZoD2LbglAp.nSw3",
            "resource": {
                "resourceType": "Encounter",
                "id": "ebCexl6mgZoD2LbglAp.nSw3",
                "identifier": [
                    {
                        "use": "usual",
                        "system": "urn:oid:1.2.840.114350.1.13.0.1.7.3.698084.8",
                        "value": "6256"
                    }
                ],
                "status": "unknown",
                "class": {
                    "system": "urn:oid:1.2.840.114350.1.72.1.7.7.10.696784.13260",
                    "code": "13",
                    "display": "Support OP Encounter"
                },
                "subject": {
                    "reference": "Patient/eoGtESJpJi1m8a8UpYH-H2Q3",
                    "display": "Obstetrics, Molly Delivered"
                },
                "period": {
                    "start": "2009-10-22",
                    "end": "2009-10-22"
                }
            },
            "search": {
                "mode": "match"
            }
        },
        {
            "link": [
                {
                    "relation": "self",
                    "url": "https://appmarket.epic.com/interconnect-amcurprd-oauth/api/FHIR/R4/Encounter/ehnV7v5AwB-wIC9MISn7QdA3"
                }
            ],
            "fullUrl": "https://appmarket.epic.com/interconnect-amcurprd-oauth/api/FHIR/R4/Encounter/ehnV7v5AwB-wIC9MISn7QdA3",
            "resource": {
                "resourceType": "Encounter",
                "id": "ehnV7v5AwB-wIC9MISn7QdA3",
                "identifier": [
                    {
                        "use": "usual",
                        "system": "urn:oid:1.2.840.114350.1.13.0.1.7.3.698084.8",
                        "value": "6257"
                    }
                ],
                "status": "unknown",
                "class": {
                    "system": "urn:oid:1.2.840.114350.1.72.1.7.7.10.696784.13260",
                    "code": "13",
                    "display": "Support OP Encounter"
                },
                "subject": {
                    "reference": "Patient/eoGtESJpJi1m8a8UpYH-H2Q3",
                    "display": "Obstetrics, Molly Delivered"
                },
                "period": {
                    "start": "2009-10-22",
                    "end": "2009-10-22"
                }
            },
            "search": {
                "mode": "match"
            }
        },
        {
            "link": [
                {
                    "relation": "self",
                    "url": "https://appmarket.epic.com/interconnect-amcurprd-oauth/api/FHIR/R4/Encounter/eOknyC9l0T7qMtrwR3lkNWw3"
                }
            ],
            "fullUrl": "https://appmarket.epic.com/interconnect-amcurprd-oauth/api/FHIR/R4/Encounter/eOknyC9l0T7qMtrwR3lkNWw3",
            "resource": {
                "resourceType": "Encounter",
                "id": "eOknyC9l0T7qMtrwR3lkNWw3",
                "identifier": [
                    {
                        "use": "usual",
                        "system": "urn:oid:1.2.840.114350.1.13.0.1.7.3.698084.8",
                        "value": "6258"
                    }
                ],
                "status": "unknown",
                "class": {
                    "system": "urn:oid:1.2.840.114350.1.72.1.7.7.10.696784.13260",
                    "code": "13",
                    "display": "Support OP Encounter"
                },
                "subject": {
                    "reference": "Patient/eoGtESJpJi1m8a8UpYH-H2Q3",
                    "display": "Obstetrics, Molly Delivered"
                },
                "period": {
                    "start": "2009-10-05",
                    "end": "2009-10-05"
                }
            },
            "search": {
                "mode": "match"
            }
        },
        {
            "link": [
                {
                    "relation": "self",
                    "url": "https://appmarket.epic.com/interconnect-amcurprd-oauth/api/FHIR/R4/Encounter/eJdDjp2LHQucLhqe5hEPb1w3"
                }
            ],
            "fullUrl": "https://appmarket.epic.com/interconnect-amcurprd-oauth/api/FHIR/R4/Encounter/eJdDjp2LHQucLhqe5hEPb1w3",
            "resource": {
                "resourceType": "Encounter",
                "id": "eJdDjp2LHQucLhqe5hEPb1w3",
                "identifier": [
                    {
                        "use": "usual",
                        "system": "urn:oid:1.2.840.114350.1.13.0.1.7.3.698084.8",
                        "value": "6259"
                    }
                ],
                "status": "unknown",
                "class": {
                    "system": "urn:oid:1.2.840.114350.1.72.1.7.7.10.696784.13260",
                    "code": "13",
                    "display": "Support OP Encounter"
                },
                "subject": {
                    "reference": "Patient/eoGtESJpJi1m8a8UpYH-H2Q3",
                    "display": "Obstetrics, Molly Delivered"
                },
                "period": {
                    "start": "2009-09-09",
                    "end": "2009-09-09"
                }
            },
            "search": {
                "mode": "match"
            }
        },
        {
            "link": [
                {
                    "relation": "self",
                    "url": "https://appmarket.epic.com/interconnect-amcurprd-oauth/api/FHIR/R4/Encounter/eGRtcuAJTR2PX7tM2DfVumw3"
                }
            ],
            "fullUrl": "https://appmarket.epic.com/interconnect-amcurprd-oauth/api/FHIR/R4/Encounter/eGRtcuAJTR2PX7tM2DfVumw3",
            "resource": {
                "resourceType": "Encounter",
                "id": "eGRtcuAJTR2PX7tM2DfVumw3",
                "identifier": [
                    {
                        "use": "usual",
                        "system": "urn:oid:1.2.840.114350.1.13.0.1.7.3.698084.8",
                        "value": "6260"
                    }
                ],
                "status": "unknown",
                "class": {
                    "system": "urn:oid:1.2.840.114350.1.72.1.7.7.10.696784.13260",
                    "code": "13",
                    "display": "Support OP Encounter"
                },
                "subject": {
                    "reference": "Patient/eoGtESJpJi1m8a8UpYH-H2Q3",
                    "display": "Obstetrics, Molly Delivered"
                },
                "period": {
                    "start": "2009-08-26",
                    "end": "2009-08-26"
                }
            },
            "search": {
                "mode": "match"
            }
        },
        {
            "link": [
                {
                    "relation": "self",
                    "url": "https://appmarket.epic.com/interconnect-amcurprd-oauth/api/FHIR/R4/Encounter/eQfiPJmZ8g.n10K.POI2qpQ3"
                }
            ],
            "fullUrl": "https://appmarket.epic.com/interconnect-amcurprd-oauth/api/FHIR/R4/Encounter/eQfiPJmZ8g.n10K.POI2qpQ3",
            "resource": {
                "resourceType": "Encounter",
                "id": "eQfiPJmZ8g.n10K.POI2qpQ3",
                "identifier": [
                    {
                        "use": "usual",
                        "system": "urn:oid:1.2.840.114350.1.13.0.1.7.3.698084.8",
                        "value": "6261"
                    }
                ],
                "status": "unknown",
                "class": {
                    "system": "urn:oid:1.2.840.114350.1.72.1.7.7.10.696784.13260",
                    "code": "13",
                    "display": "Support OP Encounter"
                },
                "subject": {
                    "reference": "Patient/eoGtESJpJi1m8a8UpYH-H2Q3",
                    "display": "Obstetrics, Molly Delivered"
                },
                "period": {
                    "start": "2009-08-26",
                    "end": "2009-08-26"
                }
            },
            "search": {
                "mode": "match"
            }
        },
        {
            "link": [
                {
                    "relation": "self",
                    "url": "https://appmarket.epic.com/interconnect-amcurprd-oauth/api/FHIR/R4/Encounter/eT0YYlDdCc5.4C2LIBgsgcg3"
                }
            ],
            "fullUrl": "https://appmarket.epic.com/interconnect-amcurprd-oauth/api/FHIR/R4/Encounter/eT0YYlDdCc5.4C2LIBgsgcg3",
            "resource": {
                "resourceType": "Encounter",
                "id": "eT0YYlDdCc5.4C2LIBgsgcg3",
                "identifier": [
                    {
                        "use": "usual",
                        "system": "urn:oid:1.2.840.114350.1.13.0.1.7.3.698084.8",
                        "value": "6262"
                    }
                ],
                "status": "unknown",
                "class": {
                    "system": "urn:oid:1.2.840.114350.1.72.1.7.7.10.696784.13260",
                    "code": "13",
                    "display": "Support OP Encounter"
                },
                "subject": {
                    "reference": "Patient/eoGtESJpJi1m8a8UpYH-H2Q3",
                    "display": "Obstetrics, Molly Delivered"
                },
                "period": {
                    "start": "2009-07-11",
                    "end": "2009-07-11"
                }
            },
            "search": {
                "mode": "match"
            }
        },
        {
            "link": [
                {
                    "relation": "self",
                    "url": "https://appmarket.epic.com/interconnect-amcurprd-oauth/api/FHIR/R4/Encounter/eLwe6WoMNcZCSPHrUGRLJTg3"
                }
            ],
            "fullUrl": "https://appmarket.epic.com/interconnect-amcurprd-oauth/api/FHIR/R4/Encounter/eLwe6WoMNcZCSPHrUGRLJTg3",
            "resource": {
                "resourceType": "Encounter",
                "id": "eLwe6WoMNcZCSPHrUGRLJTg3",
                "identifier": [
                    {
                        "use": "usual",
                        "system": "urn:oid:1.2.840.114350.1.13.0.1.7.3.698084.8",
                        "value": "6263"
                    }
                ],
                "status": "unknown",
                "class": {
                    "system": "urn:oid:1.2.840.114350.1.72.1.7.7.10.696784.13260",
                    "code": "13",
                    "display": "Support OP Encounter"
                },
                "subject": {
                    "reference": "Patient/eoGtESJpJi1m8a8UpYH-H2Q3",
                    "display": "Obstetrics, Molly Delivered"
                },
                "period": {
                    "start": "2009-07-03",
                    "end": "2009-07-03"
                }
            },
            "search": {
                "mode": "match"
            }
        },
        {
            "link": [
                {
                    "relation": "self",
                    "url": "https://appmarket.epic.com/interconnect-amcurprd-oauth/api/FHIR/R4/Encounter/eVyKRhq8Y2FqeV2UXFjccaA3"
                }
            ],
            "fullUrl": "https://appmarket.epic.com/interconnect-amcurprd-oauth/api/FHIR/R4/Encounter/eVyKRhq8Y2FqeV2UXFjccaA3",
            "resource": {
                "resourceType": "Encounter",
                "id": "eVyKRhq8Y2FqeV2UXFjccaA3",
                "identifier": [
                    {
                        "use": "usual",
                        "system": "urn:oid:1.2.840.114350.1.13.0.1.7.3.698084.8",
                        "value": "6264"
                    }
                ],
                "status": "unknown",
                "class": {
                    "system": "urn:oid:1.2.840.114350.1.72.1.7.7.10.696784.13260",
                    "code": "13",
                    "display": "Support OP Encounter"
                },
                "subject": {
                    "reference": "Patient/eoGtESJpJi1m8a8UpYH-H2Q3",
                    "display": "Obstetrics, Molly Delivered"
                },
                "period": {
                    "start": "2009-07-03",
                    "end": "2009-07-03"
                }
            },
            "search": {
                "mode": "match"
            }
        },
        {
            "link": [
                {
                    "relation": "self",
                    "url": "https://appmarket.epic.com/interconnect-amcurprd-oauth/api/FHIR/R4/Encounter/eOch68H0zV0bwLJS3OTEfbw3"
                }
            ],
            "fullUrl": "https://appmarket.epic.com/interconnect-amcurprd-oauth/api/FHIR/R4/Encounter/eOch68H0zV0bwLJS3OTEfbw3",
            "resource": {
                "resourceType": "Encounter",
                "id": "eOch68H0zV0bwLJS3OTEfbw3",
                "identifier": [
                    {
                        "use": "usual",
                        "system": "urn:oid:1.2.840.114350.1.13.0.1.7.3.698084.8",
                        "value": "6265"
                    }
                ],
                "status": "unknown",
                "class": {
                    "system": "urn:oid:1.2.840.114350.1.72.1.7.7.10.696784.13260",
                    "code": "13",
                    "display": "Support OP Encounter"
                },
                "subject": {
                    "reference": "Patient/eoGtESJpJi1m8a8UpYH-H2Q3",
                    "display": "Obstetrics, Molly Delivered"
                },
                "period": {
                    "start": "2009-07-01",
                    "end": "2009-07-01"
                }
            },
            "search": {
                "mode": "match"
            }
        },
        {
            "link": [
                {
                    "relation": "self",
                    "url": "https://appmarket.epic.com/interconnect-amcurprd-oauth/api/FHIR/R4/Encounter/etQJObmNQfg70WxjYTbAcdA3"
                }
            ],
            "fullUrl": "https://appmarket.epic.com/interconnect-amcurprd-oauth/api/FHIR/R4/Encounter/etQJObmNQfg70WxjYTbAcdA3",
            "resource": {
                "resourceType": "Encounter",
                "id": "etQJObmNQfg70WxjYTbAcdA3",
                "identifier": [
                    {
                        "use": "usual",
                        "system": "urn:oid:1.2.840.114350.1.13.0.1.7.3.698084.8",
                        "value": "6266"
                    }
                ],
                "status": "unknown",
                "class": {
                    "system": "urn:oid:1.2.840.114350.1.72.1.7.7.10.696784.13260",
                    "code": "13",
                    "display": "Support OP Encounter"
                },
                "subject": {
                    "reference": "Patient/eoGtESJpJi1m8a8UpYH-H2Q3",
                    "display": "Obstetrics, Molly Delivered"
                },
                "period": {
                    "start": "2009-07-01",
                    "end": "2009-07-01"
                }
            },
            "search": {
                "mode": "match"
            }
        },
        {
            "link": [
                {
                    "relation": "self",
                    "url": "https://appmarket.epic.com/interconnect-amcurprd-oauth/api/FHIR/R4/Encounter/eLxjIWK.ftKDOJXd9EmaxLg3"
                }
            ],
            "fullUrl": "https://appmarket.epic.com/interconnect-amcurprd-oauth/api/FHIR/R4/Encounter/eLxjIWK.ftKDOJXd9EmaxLg3",
            "resource": {
                "resourceType": "Encounter",
                "id": "eLxjIWK.ftKDOJXd9EmaxLg3",
                "identifier": [
                    {
                        "use": "usual",
                        "system": "urn:oid:1.2.840.114350.1.13.0.1.7.3.698084.8",
                        "value": "6267"
                    }
                ],
                "status": "unknown",
                "class": {
                    "system": "urn:oid:1.2.840.114350.1.72.1.7.7.10.696784.13260",
                    "code": "13",
                    "display": "Support OP Encounter"
                },
                "subject": {
                    "reference": "Patient/eoGtESJpJi1m8a8UpYH-H2Q3",
                    "display": "Obstetrics, Molly Delivered"
                },
                "period": {
                    "start": "2009-07-01",
                    "end": "2009-07-01"
                }
            },
            "search": {
                "mode": "match"
            }
        },
        {
            "link": [
                {
                    "relation": "self",
                    "url": "https://appmarket.epic.com/interconnect-amcurprd-oauth/api/FHIR/R4/Encounter/eCFHfgayOdnpCiE8vciMYDg3"
                }
            ],
            "fullUrl": "https://appmarket.epic.com/interconnect-amcurprd-oauth/api/FHIR/R4/Encounter/eCFHfgayOdnpCiE8vciMYDg3",
            "resource": {
                "resourceType": "Encounter",
                "id": "eCFHfgayOdnpCiE8vciMYDg3",
                "identifier": [
                    {
                        "use": "usual",
                        "system": "urn:oid:1.2.840.114350.1.13.0.1.7.3.698084.8",
                        "value": "6268"
                    }
                ],
                "status": "unknown",
                "class": {
                    "system": "urn:oid:1.2.840.114350.1.72.1.7.7.10.696784.13260",
                    "code": "13",
                    "display": "Support OP Encounter"
                },
                "subject": {
                    "reference": "Patient/eoGtESJpJi1m8a8UpYH-H2Q3",
                    "display": "Obstetrics, Molly Delivered"
                },
                "period": {
                    "start": "2009-07-01",
                    "end": "2009-07-01"
                }
            },
            "search": {
                "mode": "match"
            }
        },
        {
            "link": [
                {
                    "relation": "self",
                    "url": "https://appmarket.epic.com/interconnect-amcurprd-oauth/api/FHIR/R4/Encounter/emNcNPq0qRtnt3oMjGUVQ2Q3"
                }
            ],
            "fullUrl": "https://appmarket.epic.com/interconnect-amcurprd-oauth/api/FHIR/R4/Encounter/emNcNPq0qRtnt3oMjGUVQ2Q3",
            "resource": {
                "resourceType": "Encounter",
                "id": "emNcNPq0qRtnt3oMjGUVQ2Q3",
                "identifier": [
                    {
                        "use": "usual",
                        "system": "urn:oid:1.2.840.114350.1.13.0.1.7.3.698084.8",
                        "value": "6269"
                    }
                ],
                "status": "unknown",
                "class": {
                    "system": "urn:oid:1.2.840.114350.1.72.1.7.7.10.696784.13260",
                    "code": "13",
                    "display": "Support OP Encounter"
                },
                "subject": {
                    "reference": "Patient/eoGtESJpJi1m8a8UpYH-H2Q3",
                    "display": "Obstetrics, Molly Delivered"
                },
                "period": {
                    "start": "2009-04-28",
                    "end": "2009-04-28"
                }
            },
            "search": {
                "mode": "match"
            }
        },
        {
            "link": [
                {
                    "relation": "self",
                    "url": "https://appmarket.epic.com/interconnect-amcurprd-oauth/api/FHIR/R4/Encounter/eX4dlI-EiNw3EZX91fdJ6yg3"
                }
            ],
            "fullUrl": "https://appmarket.epic.com/interconnect-amcurprd-oauth/api/FHIR/R4/Encounter/eX4dlI-EiNw3EZX91fdJ6yg3",
            "resource": {
                "resourceType": "Encounter",
                "id": "eX4dlI-EiNw3EZX91fdJ6yg3",
                "identifier": [
                    {
                        "use": "usual",
                        "system": "urn:oid:1.2.840.114350.1.13.0.1.7.3.698084.8",
                        "value": "6270"
                    }
                ],
                "status": "unknown",
                "class": {
                    "system": "urn:oid:1.2.840.114350.1.72.1.7.7.10.696784.13260",
                    "code": "13",
                    "display": "Support OP Encounter"
                },
                "subject": {
                    "reference": "Patient/eoGtESJpJi1m8a8UpYH-H2Q3",
                    "display": "Obstetrics, Molly Delivered"
                },
                "period": {
                    "start": "2009-04-28",
                    "end": "2009-04-28"
                }
            },
            "search": {
                "mode": "match"
            }
        },
        {
            "link": [
                {
                    "relation": "self",
                    "url": "https://appmarket.epic.com/interconnect-amcurprd-oauth/api/FHIR/R4/Encounter/e.T98gjJaoTgTpdqcwSAqgg3"
                }
            ],
            "fullUrl": "https://appmarket.epic.com/interconnect-amcurprd-oauth/api/FHIR/R4/Encounter/e.T98gjJaoTgTpdqcwSAqgg3",
            "resource": {
                "resourceType": "Encounter",
                "id": "e.T98gjJaoTgTpdqcwSAqgg3",
                "identifier": [
                    {
                        "use": "usual",
                        "system": "urn:oid:1.2.840.114350.1.13.0.1.7.3.698084.8",
                        "value": "6271"
                    }
                ],
                "status": "unknown",
                "class": {
                    "system": "urn:oid:1.2.840.114350.1.72.1.7.7.10.696784.13260",
                    "code": "13",
                    "display": "Support OP Encounter"
                },
                "subject": {
                    "reference": "Patient/eoGtESJpJi1m8a8UpYH-H2Q3",
                    "display": "Obstetrics, Molly Delivered"
                },
                "period": {
                    "start": "2009-04-28",
                    "end": "2009-04-28"
                }
            },
            "search": {
                "mode": "match"
            }
        },
        {
            "link": [
                {
                    "relation": "self",
                    "url": "https://appmarket.epic.com/interconnect-amcurprd-oauth/api/FHIR/R4/Encounter/eP0AGM3YD5kgBvJdZ-9VZpA3"
                }
            ],
            "fullUrl": "https://appmarket.epic.com/interconnect-amcurprd-oauth/api/FHIR/R4/Encounter/eP0AGM3YD5kgBvJdZ-9VZpA3",
            "resource": {
                "resourceType": "Encounter",
                "id": "eP0AGM3YD5kgBvJdZ-9VZpA3",
                "identifier": [
                    {
                        "use": "usual",
                        "system": "urn:oid:1.2.840.114350.1.13.0.1.7.3.698084.8",
                        "value": "6272"
                    }
                ],
                "status": "unknown",
                "class": {
                    "system": "urn:oid:1.2.840.114350.1.72.1.7.7.10.696784.13260",
                    "code": "13",
                    "display": "Support OP Encounter"
                },
                "subject": {
                    "reference": "Patient/eoGtESJpJi1m8a8UpYH-H2Q3",
                    "display": "Obstetrics, Molly Delivered"
                },
                "period": {
                    "start": "2009-03-14",
                    "end": "2009-03-14"
                }
            },
            "search": {
                "mode": "match"
            }
        },
        {
            "link": [
                {
                    "relation": "self",
                    "url": "https://appmarket.epic.com/interconnect-amcurprd-oauth/api/FHIR/R4/Encounter/eT9hyQG2DudBTBYFZV.U.cQ3"
                }
            ],
            "fullUrl": "https://appmarket.epic.com/interconnect-amcurprd-oauth/api/FHIR/R4/Encounter/eT9hyQG2DudBTBYFZV.U.cQ3",
            "resource": {
                "resourceType": "Encounter",
                "id": "eT9hyQG2DudBTBYFZV.U.cQ3",
                "identifier": [
                    {
                        "use": "usual",
                        "system": "urn:oid:1.2.840.114350.1.13.0.1.7.3.698084.8",
                        "value": "6273"
                    }
                ],
                "status": "unknown",
                "class": {
                    "system": "urn:oid:1.2.840.114350.1.72.1.7.7.10.696784.13260",
                    "code": "13",
                    "display": "Support OP Encounter"
                },
                "subject": {
                    "reference": "Patient/eoGtESJpJi1m8a8UpYH-H2Q3",
                    "display": "Obstetrics, Molly Delivered"
                },
                "period": {
                    "start": "2009-03-04",
                    "end": "2009-03-04"
                }
            },
            "search": {
                "mode": "match"
            }
        },
        {
            "link": [
                {
                    "relation": "self",
                    "url": "https://appmarket.epic.com/interconnect-amcurprd-oauth/api/FHIR/R4/Encounter/eTWsa9VNZJkAbMz.keiyjzg3"
                }
            ],
            "fullUrl": "https://appmarket.epic.com/interconnect-amcurprd-oauth/api/FHIR/R4/Encounter/eTWsa9VNZJkAbMz.keiyjzg3",
            "resource": {
                "resourceType": "Encounter",
                "id": "eTWsa9VNZJkAbMz.keiyjzg3",
                "identifier": [
                    {
                        "use": "usual",
                        "system": "urn:oid:1.2.840.114350.1.13.0.1.7.3.698084.8",
                        "value": "6274"
                    }
                ],
                "status": "unknown",
                "class": {
                    "system": "urn:oid:1.2.840.114350.1.72.1.7.7.10.696784.13260",
                    "code": "13",
                    "display": "Support OP Encounter"
                },
                "subject": {
                    "reference": "Patient/eoGtESJpJi1m8a8UpYH-H2Q3",
                    "display": "Obstetrics, Molly Delivered"
                },
                "period": {
                    "start": "2009-03-04",
                    "end": "2009-03-04"
                }
            },
            "search": {
                "mode": "match"
            }
        },
        {
            "link": [
                {
                    "relation": "self",
                    "url": "https://appmarket.epic.com/interconnect-amcurprd-oauth/api/FHIR/R4/Encounter/eVt0euheVOzJlh12sN.l8nQ3"
                }
            ],
            "fullUrl": "https://appmarket.epic.com/interconnect-amcurprd-oauth/api/FHIR/R4/Encounter/eVt0euheVOzJlh12sN.l8nQ3",
            "resource": {
                "resourceType": "Encounter",
                "id": "eVt0euheVOzJlh12sN.l8nQ3",
                "identifier": [
                    {
                        "use": "usual",
                        "system": "urn:oid:1.2.840.114350.1.13.0.1.7.3.698084.8",
                        "value": "6275"
                    }
                ],
                "status": "unknown",
                "class": {
                    "system": "urn:oid:1.2.840.114350.1.72.1.7.7.10.696784.13260",
                    "code": "13",
                    "display": "Support OP Encounter"
                },
                "subject": {
                    "reference": "Patient/eoGtESJpJi1m8a8UpYH-H2Q3",
                    "display": "Obstetrics, Molly Delivered"
                },
                "period": {
                    "start": "2009-02-18",
                    "end": "2009-02-18"
                }
            },
            "search": {
                "mode": "match"
            }
        },
        {
            "link": [
                {
                    "relation": "self",
                    "url": "https://appmarket.epic.com/interconnect-amcurprd-oauth/api/FHIR/R4/Encounter/edt9EhDuYu6O0d7vsBhnROg3"
                }
            ],
            "fullUrl": "https://appmarket.epic.com/interconnect-amcurprd-oauth/api/FHIR/R4/Encounter/edt9EhDuYu6O0d7vsBhnROg3",
            "resource": {
                "resourceType": "Encounter",
                "id": "edt9EhDuYu6O0d7vsBhnROg3",
                "identifier": [
                    {
                        "use": "usual",
                        "system": "urn:oid:1.2.840.114350.1.13.0.1.7.3.698084.8",
                        "value": "6276"
                    }
                ],
                "status": "unknown",
                "class": {
                    "system": "urn:oid:1.2.840.114350.1.72.1.7.7.10.696784.13260",
                    "code": "13",
                    "display": "Support OP Encounter"
                },
                "subject": {
                    "reference": "Patient/eoGtESJpJi1m8a8UpYH-H2Q3",
                    "display": "Obstetrics, Molly Delivered"
                },
                "period": {
                    "start": "2009-02-18",
                    "end": "2009-02-18"
                }
            },
            "search": {
                "mode": "match"
            }
        },
        {
            "link": [
                {
                    "relation": "self",
                    "url": "https://appmarket.epic.com/interconnect-amcurprd-oauth/api/FHIR/R4/Encounter/euD3VQG5unN3Fq6IUAhLRrg3"
                }
            ],
            "fullUrl": "https://appmarket.epic.com/interconnect-amcurprd-oauth/api/FHIR/R4/Encounter/euD3VQG5unN3Fq6IUAhLRrg3",
            "resource": {
                "resourceType": "Encounter",
                "id": "euD3VQG5unN3Fq6IUAhLRrg3",
                "identifier": [
                    {
                        "use": "usual",
                        "system": "urn:oid:1.2.840.114350.1.13.0.1.7.3.698084.8",
                        "value": "6277"
                    }
                ],
                "status": "unknown",
                "class": {
                    "system": "urn:oid:1.2.840.114350.1.72.1.7.7.10.696784.13260",
                    "code": "13",
                    "display": "Support OP Encounter"
                },
                "subject": {
                    "reference": "Patient/eoGtESJpJi1m8a8UpYH-H2Q3",
                    "display": "Obstetrics, Molly Delivered"
                },
                "period": {
                    "start": "2008-12-23",
                    "end": "2008-12-23"
                }
            },
            "search": {
                "mode": "match"
            }
        },
        {
            "link": [
                {
                    "relation": "self",
                    "url": "https://appmarket.epic.com/interconnect-amcurprd-oauth/api/FHIR/R4/Encounter/eivzjwe6DSJCj6Rrk6k2ERg3"
                }
            ],
            "fullUrl": "https://appmarket.epic.com/interconnect-amcurprd-oauth/api/FHIR/R4/Encounter/eivzjwe6DSJCj6Rrk6k2ERg3",
            "resource": {
                "resourceType": "Encounter",
                "id": "eivzjwe6DSJCj6Rrk6k2ERg3",
                "identifier": [
                    {
                        "use": "usual",
                        "system": "urn:oid:1.2.840.114350.1.13.0.1.7.3.698084.8",
                        "value": "6278"
                    }
                ],
                "status": "unknown",
                "class": {
                    "system": "urn:oid:1.2.840.114350.1.72.1.7.7.10.696784.13260",
                    "code": "13",
                    "display": "Support OP Encounter"
                },
                "subject": {
                    "reference": "Patient/eoGtESJpJi1m8a8UpYH-H2Q3",
                    "display": "Obstetrics, Molly Delivered"
                },
                "period": {
                    "start": "2008-12-23",
                    "end": "2008-12-23"
                }
            },
            "search": {
                "mode": "match"
            }
        },
        {
            "link": [
                {
                    "relation": "self",
                    "url": "https://appmarket.epic.com/interconnect-amcurprd-oauth/api/FHIR/R4/Encounter/e2K7ecp1bdFpxoXnTv.x0uQ3"
                }
            ],
            "fullUrl": "https://appmarket.epic.com/interconnect-amcurprd-oauth/api/FHIR/R4/Encounter/e2K7ecp1bdFpxoXnTv.x0uQ3",
            "resource": {
                "resourceType": "Encounter",
                "id": "e2K7ecp1bdFpxoXnTv.x0uQ3",
                "identifier": [
                    {
                        "use": "usual",
                        "system": "urn:oid:1.2.840.114350.1.13.0.1.7.3.698084.8",
                        "value": "6279"
                    }
                ],
                "status": "unknown",
                "class": {
                    "system": "urn:oid:1.2.840.114350.1.72.1.7.7.10.696784.13260",
                    "code": "13",
                    "display": "Support OP Encounter"
                },
                "subject": {
                    "reference": "Patient/eoGtESJpJi1m8a8UpYH-H2Q3",
                    "display": "Obstetrics, Molly Delivered"
                },
                "period": {
                    "start": "2008-10-30",
                    "end": "2008-10-30"
                }
            },
            "search": {
                "mode": "match"
            }
        },
        {
            "link": [
                {
                    "relation": "self",
                    "url": "https://appmarket.epic.com/interconnect-amcurprd-oauth/api/FHIR/R4/Encounter/eCMe86KHhPm-LusuuMigD6w3"
                }
            ],
            "fullUrl": "https://appmarket.epic.com/interconnect-amcurprd-oauth/api/FHIR/R4/Encounter/eCMe86KHhPm-LusuuMigD6w3",
            "resource": {
                "resourceType": "Encounter",
                "id": "eCMe86KHhPm-LusuuMigD6w3",
                "identifier": [
                    {
                        "use": "usual",
                        "system": "urn:oid:1.2.840.114350.1.13.0.1.7.3.698084.8",
                        "value": "6280"
                    }
                ],
                "status": "unknown",
                "class": {
                    "system": "urn:oid:1.2.840.114350.1.72.1.7.7.10.696784.13260",
                    "code": "13",
                    "display": "Support OP Encounter"
                },
                "subject": {
                    "reference": "Patient/eoGtESJpJi1m8a8UpYH-H2Q3",
                    "display": "Obstetrics, Molly Delivered"
                },
                "period": {
                    "start": "2008-10-30",
                    "end": "2008-10-30"
                }
            },
            "search": {
                "mode": "match"
            }
        },
        {
            "link": [
                {
                    "relation": "self",
                    "url": "https://appmarket.epic.com/interconnect-amcurprd-oauth/api/FHIR/R4/Encounter/ebZt.WEtUBioqI6GM2cFxMg3"
                }
            ],
            "fullUrl": "https://appmarket.epic.com/interconnect-amcurprd-oauth/api/FHIR/R4/Encounter/ebZt.WEtUBioqI6GM2cFxMg3",
            "resource": {
                "resourceType": "Encounter",
                "id": "ebZt.WEtUBioqI6GM2cFxMg3",
                "identifier": [
                    {
                        "use": "usual",
                        "system": "urn:oid:1.2.840.114350.1.13.0.1.7.3.698084.8",
                        "value": "6281"
                    }
                ],
                "status": "unknown",
                "class": {
                    "system": "urn:oid:1.2.840.114350.1.72.1.7.7.10.696784.13260",
                    "code": "13",
                    "display": "Support OP Encounter"
                },
                "subject": {
                    "reference": "Patient/eoGtESJpJi1m8a8UpYH-H2Q3",
                    "display": "Obstetrics, Molly Delivered"
                },
                "period": {
                    "start": "2008-08-25",
                    "end": "2008-08-25"
                }
            },
            "search": {
                "mode": "match"
            }
        },
        {
            "link": [
                {
                    "relation": "self",
                    "url": "https://appmarket.epic.com/interconnect-amcurprd-oauth/api/FHIR/R4/Encounter/eK-a.x3gAUGbVI0HH0SRd.A3"
                }
            ],
            "fullUrl": "https://appmarket.epic.com/interconnect-amcurprd-oauth/api/FHIR/R4/Encounter/eK-a.x3gAUGbVI0HH0SRd.A3",
            "resource": {
                "resourceType": "Encounter",
                "id": "eK-a.x3gAUGbVI0HH0SRd.A3",
                "identifier": [
                    {
                        "use": "usual",
                        "system": "urn:oid:1.2.840.114350.1.13.0.1.7.3.698084.8",
                        "value": "6282"
                    }
                ],
                "status": "unknown",
                "class": {
                    "system": "urn:oid:1.2.840.114350.1.72.1.7.7.10.696784.13260",
                    "code": "13",
                    "display": "Support OP Encounter"
                },
                "subject": {
                    "reference": "Patient/eoGtESJpJi1m8a8UpYH-H2Q3",
                    "display": "Obstetrics, Molly Delivered"
                },
                "period": {
                    "start": "2008-08-25",
                    "end": "2008-08-25"
                }
            },
            "search": {
                "mode": "match"
            }
        },
        {
            "link": [
                {
                    "relation": "self",
                    "url": "https://appmarket.epic.com/interconnect-amcurprd-oauth/api/FHIR/R4/Encounter/e4xdLiibjB8MFfmmdMwPB2g3"
                }
            ],
            "fullUrl": "https://appmarket.epic.com/interconnect-amcurprd-oauth/api/FHIR/R4/Encounter/e4xdLiibjB8MFfmmdMwPB2g3",
            "resource": {
                "resourceType": "Encounter",
                "id": "e4xdLiibjB8MFfmmdMwPB2g3",
                "identifier": [
                    {
                        "use": "usual",
                        "system": "urn:oid:1.2.840.114350.1.13.0.1.7.3.698084.8",
                        "value": "6283"
                    }
                ],
                "status": "unknown",
                "class": {
                    "system": "urn:oid:1.2.840.114350.1.72.1.7.7.10.696784.13260",
                    "code": "13",
                    "display": "Support OP Encounter"
                },
                "subject": {
                    "reference": "Patient/eoGtESJpJi1m8a8UpYH-H2Q3",
                    "display": "Obstetrics, Molly Delivered"
                },
                "period": {
                    "start": "2008-08-25",
                    "end": "2008-08-25"
                }
            },
            "search": {
                "mode": "match"
            }
        },
        {
            "link": [
                {
                    "relation": "self",
                    "url": "https://appmarket.epic.com/interconnect-amcurprd-oauth/api/FHIR/R4/EpisodeOfCare/eWFLuDbV9hBWTeh8AbNHheQ3"
                }
            ],
            "fullUrl": "https://appmarket.epic.com/interconnect-amcurprd-oauth/api/FHIR/R4/EpisodeOfCare/eWFLuDbV9hBWTeh8AbNHheQ3",
            "resource": {
                "resourceType": "EpisodeOfCare",
                "id": "eWFLuDbV9hBWTeh8AbNHheQ3",
                "extension": [
                    {
                        "valueString": "First Pregnancy",
                        "url": "http://open.epic.com/FHIR/StructureDefinition/extension/episode-name"
                    }
                ],
                "status": "finished",
                "type": [
                    {
                        "coding": [
                            {
                                "system": "urn:oid:1.2.840.114350.1.13.0.1.7.2.726668",
                                "code": "2",
                                "display": "Pregnancy"
                            },
                            {
                                "system": "urn:oid:1.2.840.114350.1.13.0.1.7.4.726668.130",
                                "code": "1",
                                "display": "Obstetrics"
                            }
                        ],
                        "text": "Pregnancy"
                    }
                ],
                "diagnosis": [
                    {
                        "condition": {
                            "reference": "Condition/eZbzGGT5RuNFQ5Ja2ReERCw3",
                            "type": "Condition",
                            "display": "Supervision of normal first pregnancy (Resolved)"
                        }
                    }
                ],
                "patient": {
                    "reference": "Patient/eoGtESJpJi1m8a8UpYH-H2Q3",
                    "type": "Patient",
                    "display": "Obstetrics, Molly Delivered"
                },
                "period": {
                    "start": "2010-09-13",
                    "end": "2011-07-30"
                },
                "team": [
                    {
                        "reference": "CareTeam/eV9040E4le0E5sJaVexZg-nIxnkoH2PziR6WEyT61rYk3",
                        "type": "CareTeam"
                    }
                ]
            },
            "search": {
                "mode": "include"
            }
        },
        {
            "link": [
                {
                    "relation": "self",
                    "url": "https://appmarket.epic.com/interconnect-amcurprd-oauth/api/FHIR/R4/EpisodeOfCare/eclvN-x29koEWoqZBdf3G9w3"
                }
            ],
            "fullUrl": "https://appmarket.epic.com/interconnect-amcurprd-oauth/api/FHIR/R4/EpisodeOfCare/eclvN-x29koEWoqZBdf3G9w3",
            "resource": {
                "resourceType": "EpisodeOfCare",
                "id": "eclvN-x29koEWoqZBdf3G9w3",
                "extension": [
                    {
                        "valueString": "Pregnancy 1",
                        "url": "http://open.epic.com/FHIR/StructureDefinition/extension/episode-name"
                    }
                ],
                "status": "finished",
                "type": [
                    {
                        "coding": [
                            {
                                "system": "urn:oid:1.2.840.114350.1.13.0.1.7.2.726668",
                                "code": "2",
                                "display": "Pregnancy"
                            },
                            {
                                "system": "urn:oid:1.2.840.114350.1.13.0.1.7.4.726668.130",
                                "code": "1",
                                "display": "Obstetrics"
                            }
                        ],
                        "text": "Pregnancy"
                    }
                ],
                "patient": {
                    "reference": "Patient/eoGtESJpJi1m8a8UpYH-H2Q3",
                    "type": "Patient",
                    "display": "Obstetrics, Molly Delivered"
                },
                "period": {
                    "start": "2011-09-28",
                    "end": "2017-07-05"
                },
                "team": [
                    {
                        "reference": "CareTeam/eV9040E4le0E5sJaVexZg-kqAfCMEGvf.aK8cWrCIKis3",
                        "type": "CareTeam"
                    }
                ]
            },
            "search": {
                "mode": "include"
            }
        },
        {
            "link": [
                {
                    "relation": "self",
                    "url": "https://appmarket.epic.com/interconnect-amcurprd-oauth/api/FHIR/R4/Patient/eoGtESJpJi1m8a8UpYH-H2Q3"
                }
            ],
            "fullUrl": "https://appmarket.epic.com/interconnect-amcurprd-oauth/api/FHIR/R4/Patient/eoGtESJpJi1m8a8UpYH-H2Q3",
            "resource": {
                "resourceType": "Patient",
                "id": "eoGtESJpJi1m8a8UpYH-H2Q3",
                "extension": [
                    {
                        "extension": [
                            {
                                "valueCoding": {
                                    "system": "http://terminology.hl7.org/CodeSystem/v3-NullFlavor",
                                    "code": "UNK",
                                    "display": "Unknown"
                                },
                                "url": "ombCategory"
                            },
                            {
                                "valueString": "Unknown",
                                "url": "text"
                            }
                        ],
                        "url": "http://hl7.org/fhir/us/core/StructureDefinition/us-core-race"
                    },
                    {
                        "extension": [
                            {
                                "valueString": "Unknown",
                                "url": "text"
                            }
                        ],
                        "url": "http://hl7.org/fhir/us/core/StructureDefinition/us-core-ethnicity"
                    },
                    {
                        "valueCodeableConcept": {
                            "coding": [
                                {
                                    "system": "urn:oid:1.2.840.114350.1.13.0.1.7.10.698084.130.657370.19999000",
                                    "code": "female",
                                    "display": "female"
                                }
                            ]
                        },
                        "url": "http://open.epic.com/FHIR/StructureDefinition/extension/legal-sex"
                    },
                    {
                        "valueCodeableConcept": {
                            "coding": [
                                {
                                    "system": "urn:oid:1.2.840.114350.1.13.0.1.7.10.698084.130.657370.19999000",
                                    "code": "female",
                                    "display": "female"
                                }
                            ]
                        },
                        "url": "http://open.epic.com/FHIR/StructureDefinition/extension/sex-for-clinical-use"
                    },
                    {
                        "valueCode": "F",
                        "url": "http://hl7.org/fhir/us/core/StructureDefinition/us-core-birthsex"
                    }
                ],
                "identifier": [
                    {
                        "use": "usual",
                        "system": "urn:oid:2.16.840.1.113883.4.1",
                        "value": "506-38-1984"
                    },
                    {
                        "use": "usual",
                        "type": {
                            "text": "CEID"
                        },
                        "system": "urn:epic:apporchard.curprod",
                        "value": "AO1NMW474KTBS35"
                    },
                    {
                        "use": "usual",
                        "type": {
                            "text": "EPIC"
                        },
                        "system": "urn:oid:1.2.840.114350.1.1",
                        "value": "E3006"
                    },
                    {
                        "use": "usual",
                        "type": {
                            "text": "EXTERNAL"
                        },
                        "system": "urn:oid:1.2.840.114350.1.13.0.1.7.2.698084",
                        "value": "Z4940"
                    },
                    {
                        "use": "usual",
                        "type": {
                            "text": "FHIR"
                        },
                        "system": "http://open.epic.com/FHIR/StructureDefinition/patient-dstu2-fhir-id",
                        "value": "TJR23Xq3FjZvAyvSFLWoSs9MssKF7DmETzm8aZaTYKPcB"
                    },
                    {
                        "use": "usual",
                        "type": {
                            "text": "FHIR STU3"
                        },
                        "system": "http://open.epic.com/FHIR/StructureDefinition/patient-fhir-id",
                        "value": "eoGtESJpJi1m8a8UpYH-H2Q3"
                    },
                    {
                        "use": "usual",
                        "type": {
                            "text": "INTERNAL"
                        },
                        "system": "urn:oid:1.2.840.114350.1.13.0.1.7.2.698084",
                        "value": "     Z4940"
                    },
                    {
                        "use": "usual",
                        "type": {
                            "text": "MRN"
                        },
                        "system": "urn:oid:1.2.840.114350.1.13.0.1.7.5.737384.14",
                        "value": "202756"
                    },
                    {
                        "use": "usual",
                        "type": {
                            "text": "MYCHARTLOGIN"
                        },
                        "system": "urn:oid:1.2.840.114350.1.13.0.1.7.3.878082.110",
                        "value": "OBMOLLY"
                    },
                    {
                        "use": "usual",
                        "type": {
                            "text": "WPRINTERNAL"
                        },
                        "system": "urn:oid:1.2.840.114350.1.13.0.1.7.2.878082",
                        "value": "468"
                    }
                ],
                "active": true,
                "name": [
                    {
                        "use": "official",
                        "text": "Molly Delivered Obstetrics",
                        "family": "Obstetrics",
                        "given": [
                            "Molly",
                            "Delivered"
                        ]
                    },
                    {
                        "use": "usual",
                        "text": "Molly Delivered Obstetrics",
                        "family": "Obstetrics",
                        "given": [
                            "Molly",
                            "Delivered"
                        ]
                    }
                ],
                "telecom": [
                    {
                        "system": "phone",
                        "value": "608-555-4578",
                        "use": "home"
                    },
                    {
                        "system": "phone",
                        "value": "608-555-4785",
                        "use": "work"
                    },
                    {
                        "system": "phone",
                        "value": "608-555-7774",
                        "use": "mobile"
                    }
                ],
                "gender": "female",
                "birthDate": "1983-09-13",
                "deceasedBoolean": false,
                "address": [
                    {
                        "use": "home",
                        "line": [
                            "4563 Quartz Street"
                        ],
                        "city": "Madison",
                        "state": "WI",
                        "postalCode": "53719",
                        "country": "US"
                    }
                ],
                "maritalStatus": {
                    "text": "Married"
                },
                "contact": [
                    {
                        "relationship": [
                            {
                                "coding": [
                                    {
                                        "system": "http://terminology.hl7.org/CodeSystem/v2-0131",
                                        "code": "C",
                                        "display": "Emergency Contact"
                                    },
                                    {
                                        "system": "urn:oid:1.2.840.114350.1.13.0.1.7.4.827665.1000",
                                        "code": "17",
                                        "display": "Spouse"
                                    }
                                ],
                                "text": "Spouse"
                            }
                        ],
                        "name": {
                            "use": "usual",
                            "text": "Michael Williams"
                        },
                        "telecom": [
                            {
                                "system": "phone",
                                "value": "608-555-4578",
                                "use": "home"
                            }
                        ],
                        "address": {
                            "use": "home",
                            "line": [
                                "4563 Quartz Street"
                            ],
                            "city": "Madison",
                            "state": "WI",
                            "postalCode": "53719",
                            "country": "US"
                        }
                    },
                    {
                        "relationship": [
                            {
                                "coding": [
                                    {
                                        "system": "http://terminology.hl7.org/CodeSystem/v2-0131",
                                        "code": "E",
                                        "display": "Employer"
                                    }
                                ]
                            }
                        ],
                        "organization": {
                            "display": "Other"
                        }
                    }
                ],
                "managingOrganization": {
                    "reference": "Organization/enRyWnSP963FYDpoks4NHOA3",
                    "display": "Epic Hospital System"
                }
            },
            "search": {
                "mode": "include"
            }
        }
    ]
}