{
    "resourceType": "Bundle",
    "type": "searchset",
    "total": 59,
    "link": [
        {
            "relation": "self",
            "url": "https://appmarket.epic.com/interconnect-amcurprd-oauth/api/FHIR/R4/Encounter?_include=Encounter:condition&_include=Encounter:episodeOfCare&_include=Encounter:partOf&_include=Encounter:subject&_format=json&patient=eCVAC1S2CS9QlQl5qk0C-uA3"
        }
    ],
    "entry": [
        {
            "link": [
                {
                    "relation": "self",
                    "url": "https://appmarket.epic.com/interconnect-amcurprd-oauth/api/FHIR/R4/Encounter/eSYRnoQC3BpHbICDzAsZysQ3"
                }
            ],
            "fullUrl": "https://appmarket.epic.com/interconnect-amcurprd-oauth/api/FHIR/R4/Encounter/eSYRnoQC3BpHbICDzAsZysQ3",
            "resource": {
                "resourceType": "Encounter",
                "id": "eSYRnoQC3BpHbICDzAsZysQ3",
                "identifier": [
                    {
                        "use": "usual",
                        "system": "urn:oid:1.2.840.114350.1.13.0.1.7.3.698084.8",
                        "value": "7182"
                    }
                ],
                "status": "finished",
                "class": {
                    "system": "urn:oid:1.2.840.114350.1.72.1.7.7.10.696784.13260",
                    "code": "13",
                    "display": "Support OP Encounter"
                },
                "type": [
                    {
                        "coding": [
                            {
                                "system": "urn:oid:1.2.840.114350.1.13.0.1.7.10.698084.30",
                                "code": "150",
                                "display": "Abstract"
                            }
                        ],
                        "text": "Abstract"
                    }
                ],
                "subject": {
                    "reference": "Patient/eCVAC1S2CS9QlQl5qk0C-uA3",
                    "display": "Liver, Len Txpp"
                },
                "episodeOfCare": [
                    {
                        "reference": "EpisodeOfCare/ekVWPlkKKXVt-CoeKnAiR3g3",
                        "type": "EpisodeOfCare",
                        "display": "Liver Episode (Transplanted  2/26/2010) - Transplant 1 "
                    }
                ],
                "period": {
                    "start": "2013-11-12",
                    "end": "2013-11-12"
                },
                "location": [
                    {
                        "location": {
                            "reference": "Location/e.zUbzUZH9WErlJkdM0-hMZY7Z6JkVK.ftghaWm0ZCLs3",
                            "display": "EMH Abdominal Transplant"
                        }
                    }
                ]
            },
            "search": {
                "mode": "match"
            }
        },
        {
            "link": [
                {
                    "relation": "self",
                    "url": "https://appmarket.epic.com/interconnect-amcurprd-oauth/api/FHIR/R4/Encounter/eZfwMki9Q3I33tzXgdMQAtw3"
                }
            ],
            "fullUrl": "https://appmarket.epic.com/interconnect-amcurprd-oauth/api/FHIR/R4/Encounter/eZfwMki9Q3I33tzXgdMQAtw3",
            "resource": {
                "resourceType": "Encounter",
                "id": "eZfwMki9Q3I33tzXgdMQAtw3",
                "identifier": [
                    {
                        "use": "usual",
                        "system": "urn:oid:1.2.840.114350.1.13.0.1.7.3.698084.8",
                        "value": "7183"
                    }
                ],
                "status": "in-progress",
                "class": {
                    "system": "urn:oid:1.2.840.114350.1.72.1.7.7.10.696784.13260",
                    "code": "13",
                    "display": "Support OP Encounter"
                },
                "type": [
                    {
                        "coding": [
                            {
                                "system": "urn:oid:1.2.840.114350.1.13.0.1.7.10.698084.30",
                                "code": "150",
                                "display": "Abstract"
                            }
                        ],
                        "text": "Abstract"
                    }
                ],
                "subject": {
                    "reference": "Patient/eCVAC1S2CS9QlQl5qk0C-uA3",
                    "display": "Liver, Len Txpp"
                },
                "episodeOfCare": [
                    {
                        "reference": "EpisodeOfCare/ekVWPlkKKXVt-CoeKnAiR3g3",
                        "type": "EpisodeOfCare",
                        "display": "Liver Episode (Transplanted  2/26/2010) - Transplant 1 "
                    }
                ],
                "period": {
                    "start": "2013-10-05",
                    "end": "2013-10-05"
                },
                "location": [
                    {
                        "location": {
                            "reference": "Location/e.zUbzUZH9WErlJkdM0-hMZY7Z6JkVK.ftghaWm0ZCLs3",
                            "display": "EMH Abdominal Transplant"
                        }
                    }
                ]
            },
            "search": {
                "mode": "match"
            }
        },
        {
            "link": [
                {
                    "relation": "self",
                    "url": "https://appmarket.epic.com/interconnect-amcurprd-oauth/api/FHIR/R4/Encounter/ehf.1AKjWZcQLAjRzAM6CNg3"
                }
            ],
            "fullUrl": "https://appmarket.epic.com/interconnect-amcurprd-oauth/api/FHIR/R4/Encounter/ehf.1AKjWZcQLAjRzAM6CNg3",
            "resource": {
                "resourceType": "Encounter",
                "id": "ehf.1AKjWZcQLAjRzAM6CNg3",
                "identifier": [
                    {
                        "use": "usual",
                        "system": "urn:oid:1.2.840.114350.1.13.0.1.7.3.698084.8",
                        "value": "7186"
                    }
                ],
                "status": "in-progress",
                "class": {
                    "system": "urn:oid:1.2.840.114350.1.72.1.7.7.10.696784.13260",
                    "code": "13",
                    "display": "Support OP Encounter"
                },
                "type": [
                    {
                        "coding": [
                            {
                                "system": "urn:oid:1.2.840.114350.1.13.0.1.7.10.698084.30",
                                "code": "150",
                                "display": "Abstract"
                            }
                        ],
                        "text": "Abstract"
                    }
                ],
                "subject": {
                    "reference": "Patient/eCVAC1S2CS9QlQl5qk0C-uA3",
                    "display": "Liver, Len Txpp"
                },
                "episodeOfCare": [
                    {
                        "reference": "EpisodeOfCare/ekVWPlkKKXVt-CoeKnAiR3g3",
                        "type": "EpisodeOfCare",
                        "display": "Liver Episode (Transplanted  2/26/2010) - Transplant 1 "
                    }
                ],
                "period": {
                    "start": "2013-10-04",
                    "end": "2013-10-04"
                },
                "location": [
                    {
                        "location": {
                            "reference": "Location/e.zUbzUZH9WErlJkdM0-hMZY7Z6JkVK.ftghaWm0ZCLs3",
                            "display": "EMH Abdominal Transplant"
                        }
                    }
                ]
            },
            "search": {
                "mode": "match"
            }
        },
        {
            "link": [
                {
                    "relation": "self",
                    "url": "https://appmarket.epic.com/interconnect-amcurprd-oauth/api/FHIR/R4/Encounter/emEJ4E56LiVUrkktgzinEYQ3"
                }
            ],
            "fullUrl": "https://appmarket.epic.com/interconnect-amcurprd-oauth/api/FHIR/R4/Encounter/emEJ4E56LiVUrkktgzinEYQ3",
            "resource": {
                "resourceType": "Encounter",
                "id": "emEJ4E56LiVUrkktgzinEYQ3",
                "identifier": [
                    {
                        "use": "usual",
                        "system": "urn:oid:1.2.840.114350.1.13.0.1.7.3.698084.8",
                        "value": "7187"
                    }
                ],
                "status": "finished",
                "class": {
                    "system": "urn:oid:1.2.840.114350.1.72.1.7.7.10.696784.13260",
                    "code": "13",
                    "display": "Support OP Encounter"
                },
                "type": [
                    {
                        "coding": [
                            {
                                "system": "urn:oid:1.2.840.114350.1.13.0.1.7.10.698084.30",
                                "code": "111",
                                "display": "Orders Only"
                            }
                        ],
                        "text": "Orders Only"
                    }
                ],
                "subject": {
                    "reference": "Patient/eCVAC1S2CS9QlQl5qk0C-uA3",
                    "display": "Liver, Len Txpp"
                },
                "period": {
                    "start": "2013-09-25",
                    "end": "2013-09-25"
                },
                "location": [
                    {
                        "location": {
                            "reference": "Location/e.zUbzUZH9WErlJkdM0-hMZY7Z6JkVK.ftghaWm0ZCLs3",
                            "display": "EMH Abdominal Transplant"
                        }
                    }
                ]
            },
            "search": {
                "mode": "match"
            }
        },
        {
            "link": [
                {
                    "relation": "self",
                    "url": "https://appmarket.epic.com/interconnect-amcurprd-oauth/api/FHIR/R4/Encounter/eOcf5JSvsCaAJgprGuFpI6g3"
                }
            ],
            "fullUrl": "https://appmarket.epic.com/interconnect-amcurprd-oauth/api/FHIR/R4/Encounter/eOcf5JSvsCaAJgprGuFpI6g3",
            "resource": {
                "resourceType": "Encounter",
                "id": "eOcf5JSvsCaAJgprGuFpI6g3",
                "identifier": [
                    {
                        "use": "usual",
                        "system": "urn:oid:1.2.840.114350.1.13.0.1.7.3.698084.8",
                        "value": "7188"
                    }
                ],
                "status": "finished",
                "class": {
                    "system": "urn:oid:1.2.840.114350.1.72.1.7.7.10.696784.13260",
                    "code": "13",
                    "display": "Support OP Encounter"
                },
                "type": [
                    {
                        "coding": [
                            {
                                "system": "urn:oid:1.2.840.114350.1.13.0.1.7.10.698084.30",
                                "code": "111",
                                "display": "Orders Only"
                            }
                        ],
                        "text": "Orders Only"
                    }
                ],
                "subject": {
                    "reference": "Patient/eCVAC1S2CS9QlQl5qk0C-uA3",
                    "display": "Liver, Len Txpp"
                },
                "episodeOfCare": [
                    {
                        "reference": "EpisodeOfCare/ekVWPlkKKXVt-CoeKnAiR3g3",
                        "type": "EpisodeOfCare",
                        "display": "Liver Episode (Transplanted  2/26/2010) - Transplant 1 "
                    }
                ],
                "period": {
                    "start": "2013-09-11",
                    "end": "2013-09-11"
                },
                "location": [
                    {
                        "location": {
                            "reference": "Location/e.zUbzUZH9WErlJkdM0-hMZY7Z6JkVK.ftghaWm0ZCLs3",
                            "display": "EMH Abdominal Transplant"
                        }
                    }
                ]
            },
            "search": {
                "mode": "match"
            }
        },
        {
            "link": [
                {
                    "relation": "self",
                    "url": "https://appmarket.epic.com/interconnect-amcurprd-oauth/api/FHIR/R4/Encounter/eHpKAMncliklFMZWxSNJ8wQ3"
                }
            ],
            "fullUrl": "https://appmarket.epic.com/interconnect-amcurprd-oauth/api/FHIR/R4/Encounter/eHpKAMncliklFMZWxSNJ8wQ3",
            "resource": {
                "resourceType": "Encounter",
                "id": "eHpKAMncliklFMZWxSNJ8wQ3",
                "identifier": [
                    {
                        "use": "usual",
                        "system": "urn:oid:1.2.840.114350.1.13.0.1.7.3.698084.8",
                        "value": "7189"
                    }
                ],
                "status": "finished",
                "class": {
                    "system": "urn:oid:1.2.840.114350.1.72.1.7.7.10.696784.13260",
                    "code": "13",
                    "display": "Support OP Encounter"
                },
                "type": [
                    {
                        "coding": [
                            {
                                "system": "urn:oid:1.2.840.114350.1.13.0.1.7.10.698084.30",
                                "code": "111",
                                "display": "Orders Only"
                            }
                        ],
                        "text": "Orders Only"
                    }
                ],
                "subject": {
                    "reference": "Patient/eCVAC1S2CS9QlQl5qk0C-uA3",
                    "display": "Liver, Len Txpp"
                },
                "episodeOfCare": [
                    {
                        "reference": "EpisodeOfCare/ekVWPlkKKXVt-CoeKnAiR3g3",
                        "type": "EpisodeOfCare",
                        "display": "Liver Episode (Transplanted  2/26/2010) - Transplant 1 "
                    }
                ],
                "period": {
                    "start": "2013-08-13",
                    "end": "2013-08-13"
                },
                "location": [
                    {
                        "location": {
                            "reference": "Location/e.zUbzUZH9WErlJkdM0-hMZY7Z6JkVK.ftghaWm0ZCLs3",
                            "display": "EMH Abdominal Transplant"
                        }
                    }
                ]
            },
            "search": {
                "mode": "match"
            }
        },
        {
            "link": [
                {
                    "relation": "self",
                    "url": "https://appmarket.epic.com/interconnect-amcurprd-oauth/api/FHIR/R4/Encounter/e4unl1bgou0dsX3ZF8N6qrA3"
                }
            ],
            "fullUrl": "https://appmarket.epic.com/interconnect-amcurprd-oauth/api/FHIR/R4/Encounter/e4unl1bgou0dsX3ZF8N6qrA3",
            "resource": {
                "resourceType": "Encounter",
                "id": "e4unl1bgou0dsX3ZF8N6qrA3",
                "identifier": [
                    {
                        "use": "usual",
                        "system": "urn:oid:1.2.840.114350.1.13.0.1.7.3.698084.8",
                        "value": "7190"
                    }
                ],
                "status": "finished",
                "class": {
                    "system": "urn:oid:1.2.840.114350.1.72.1.7.7.10.696784.13260",
                    "code": "13",
                    "display": "Support OP Encounter"
                },
                "type": [
                    {
                        "coding": [
                            {
                                "system": "urn:oid:1.2.840.114350.1.13.0.1.7.10.698084.30",
                                "code": "111",
                                "display": "Orders Only"
                            }
                        ],
                        "text": "Orders Only"
                    }
                ],
                "subject": {
                    "reference": "Patient/eCVAC1S2CS9QlQl5qk0C-uA3",
                    "display": "Liver, Len Txpp"
                },
                "episodeOfCare": [
                    {
                        "reference": "EpisodeOfCare/ekVWPlkKKXVt-CoeKnAiR3g3",
                        "type": "EpisodeOfCare",
                        "display": "Liver Episode (Transplanted  2/26/2010) - Transplant 1 "
                    }
                ],
                "period": {
                    "start": "2013-07-26",
                    "end": "2013-07-26"
                },
                "location": [
                    {
                        "location": {
                            "reference": "Location/e.zUbzUZH9WErlJkdM0-hMZY7Z6JkVK.ftghaWm0ZCLs3",
                            "display": "EMH Abdominal Transplant"
                        }
                    }
                ]
            },
            "search": {
                "mode": "match"
            }
        },
        {
            "link": [
                {
                    "relation": "self",
                    "url": "https://appmarket.epic.com/interconnect-amcurprd-oauth/api/FHIR/R4/Encounter/eMqYTIyOBUQPtUVH56vljjQ3"
                }
            ],
            "fullUrl": "https://appmarket.epic.com/interconnect-amcurprd-oauth/api/FHIR/R4/Encounter/eMqYTIyOBUQPtUVH56vljjQ3",
            "resource": {
                "resourceType": "Encounter",
                "id": "eMqYTIyOBUQPtUVH56vljjQ3",
                "identifier": [
                    {
                        "use": "usual",
                        "system": "urn:oid:1.2.840.114350.1.13.0.1.7.3.698084.8",
                        "value": "7193"
                    }
                ],
                "status": "finished",
                "class": {
                    "system": "urn:oid:1.2.840.114350.1.72.1.7.7.10.696784.13260",
                    "code": "13",
                    "display": "Support OP Encounter"
                },
                "type": [
                    {
                        "coding": [
                            {
                                "system": "urn:oid:1.2.840.114350.1.13.0.1.7.10.698084.30",
                                "code": "111",
                                "display": "Orders Only"
                            }
                        ],
                        "text": "Orders Only"
                    }
                ],
                "subject": {
                    "reference": "Patient/eCVAC1S2CS9QlQl5qk0C-uA3",
                    "display": "Liver, Len Txpp"
                },
                "episodeOfCare": [
                    {
                        "reference": "EpisodeOfCare/ekVWPlkKKXVt-CoeKnAiR3g3",
                        "type": "EpisodeOfCare",
                        "display": "Liver Episode (Transplanted  2/26/2010) - Transplant 1 "
                    }
                ],
                "period": {
                    "start": "2013-07-09",
                    "end": "2013-07-09"
                },
                "location": [
                    {
                        "location": {
                            "reference": "Location/e.zUbzUZH9WErlJkdM0-hMZY7Z6JkVK.ftghaWm0ZCLs3",
                            "display": "EMH Abdominal Transplant"
                        }
                    }
                ]
            },
            "search": {
                "mode": "match"
            }
        },
        {
            "link": [
                {
                    "relation": "self",
                    "url": "https://appmarket.epic.com/interconnect-amcurprd-oauth/api/FHIR/R4/Encounter/ec6WayY0sXEmFaHmy49Cd8g3"
                }
            ],
            "fullUrl": "https://appmarket.epic.com/interconnect-amcurprd-oauth/api/FHIR/R4/Encounter/ec6WayY0sXEmFaHmy49Cd8g3",
            "resource": {
                "resourceType": "Encounter",
                "id": "ec6WayY0sXEmFaHmy49Cd8g3",
                "identifier": [
                    {
                        "use": "usual",
                        "system": "urn:oid:1.2.840.114350.1.13.0.1.7.3.698084.8",
                        "value": "7194"
                    }
                ],
                "status": "finished",
                "class": {
                    "system": "urn:oid:1.2.840.114350.1.72.1.7.7.10.696784.13260",
                    "code": "13",
                    "display": "Support OP Encounter"
                },
                "type": [
                    {
                        "coding": [
                            {
                                "system": "urn:oid:1.2.840.114350.1.13.0.1.7.10.698084.30",
                                "code": "111",
                                "display": "Orders Only"
                            }
                        ],
                        "text": "Orders Only"
                    }
                ],
                "subject": {
                    "reference": "Patient/eCVAC1S2CS9QlQl5qk0C-uA3",
                    "display": "Liver, Len Txpp"
                },
                "episodeOfCare": [
                    {
                        "reference": "EpisodeOfCare/ekVWPlkKKXVt-CoeKnAiR3g3",
                        "type": "EpisodeOfCare",
                        "display": "Liver Episode (Transplanted  2/26/2010) - Transplant 1 "
                    }
                ],
                "period": {
                    "start": "2013-07-04",
                    "end": "2013-07-04"
                },
                "location": [
                    {
                        "location": {
                            "reference": "Location/e.zUbzUZH9WErlJkdM0-hMZY7Z6JkVK.ftghaWm0ZCLs3",
                            "display": "EMH Abdominal Transplant"
                        }
                    }
                ]
            },
            "search": {
                "mode": "match"
            }
        },
        {
            "link": [
                {
                    "relation": "self",
                    "url": "https://appmarket.epic.com/interconnect-amcurprd-oauth/api/FHIR/R4/Encounter/e0enEbfIGO2ppjWRsZ0Xa5A3"
                }
            ],
            "fullUrl": "https://appmarket.epic.com/interconnect-amcurprd-oauth/api/FHIR/R4/Encounter/e0enEbfIGO2ppjWRsZ0Xa5A3",
            "resource": {
                "resourceType": "Encounter",
                "id": "e0enEbfIGO2ppjWRsZ0Xa5A3",
                "identifier": [
                    {
                        "use": "usual",
                        "system": "urn:oid:1.2.840.114350.1.13.0.1.7.3.698084.8",
                        "value": "7195"
                    }
                ],
                "status": "finished",
                "class": {
                    "system": "urn:oid:1.2.840.114350.1.72.1.7.7.10.696784.13260",
                    "code": "13",
                    "display": "Support OP Encounter"
                },
                "type": [
                    {
                        "coding": [
                            {
                                "system": "urn:oid:1.2.840.114350.1.13.0.1.7.10.698084.30",
                                "code": "111",
                                "display": "Orders Only"
                            }
                        ],
                        "text": "Orders Only"
                    }
                ],
                "subject": {
                    "reference": "Patient/eCVAC1S2CS9QlQl5qk0C-uA3",
                    "display": "Liver, Len Txpp"
                },
                "episodeOfCare": [
                    {
                        "reference": "EpisodeOfCare/ekVWPlkKKXVt-CoeKnAiR3g3",
                        "type": "EpisodeOfCare",
                        "display": "Liver Episode (Transplanted  2/26/2010) - Transplant 1 "
                    }
                ],
                "period": {
                    "start": "2013-07-01",
                    "end": "2013-07-01"
                },
                "location": [
                    {
                        "location": {
                            "reference": "Location/e.zUbzUZH9WErlJkdM0-hMZY7Z6JkVK.ftghaWm0ZCLs3",
                            "display": "EMH Abdominal Transplant"
                        }
                    }
                ]
            },
            "search": {
                "mode": "match"
            }
        },
        {
            "link": [
                {
                    "relation": "self",
                    "url": "https://appmarket.epic.com/interconnect-amcurprd-oauth/api/FHIR/R4/Encounter/eWeBPLW8SkrR1LBOMAZJWlQ3"
                }
            ],
            "fullUrl": "https://appmarket.epic.com/interconnect-amcurprd-oauth/api/FHIR/R4/Encounter/eWeBPLW8SkrR1LBOMAZJWlQ3",
            "resource": {
                "resourceType": "Encounter",
                "id": "eWeBPLW8SkrR1LBOMAZJWlQ3",
                "identifier": [
                    {
                        "use": "usual",
                        "system": "urn:oid:1.2.840.114350.1.13.0.1.7.3.698084.8",
                        "value": "7197"
                    }
                ],
                "status": "finished",
                "class": {
                    "system": "urn:oid:1.2.840.114350.1.72.1.7.7.10.696784.13260",
                    "code": "13",
                    "display": "Support OP Encounter"
                },
                "type": [
                    {
                        "coding": [
                            {
                                "system": "urn:oid:1.2.840.114350.1.13.0.1.7.10.698084.30",
                                "code": "111",
                                "display": "Orders Only"
                            }
                        ],
                        "text": "Orders Only"
                    }
                ],
                "subject": {
                    "reference": "Patient/eCVAC1S2CS9QlQl5qk0C-uA3",
                    "display": "Liver, Len Txpp"
                },
                "episodeOfCare": [
                    {
                        "reference": "EpisodeOfCare/ekVWPlkKKXVt-CoeKnAiR3g3",
                        "type": "EpisodeOfCare",
                        "display": "Liver Episode (Transplanted  2/26/2010) - Transplant 1 "
                    }
                ],
                "period": {
                    "start": "2013-06-27",
                    "end": "2013-06-27"
                },
                "location": [
                    {
                        "location": {
                            "reference": "Location/e.zUbzUZH9WErlJkdM0-hMZY7Z6JkVK.ftghaWm0ZCLs3",
                            "display": "EMH Abdominal Transplant"
                        }
                    }
                ]
            },
            "search": {
                "mode": "match"
            }
        },
        {
            "link": [
                {
                    "relation": "self",
                    "url": "https://appmarket.epic.com/interconnect-amcurprd-oauth/api/FHIR/R4/Encounter/eUqJ-3lJjcCIVbVL2NvWkjQ3"
                }
            ],
            "fullUrl": "https://appmarket.epic.com/interconnect-amcurprd-oauth/api/FHIR/R4/Encounter/eUqJ-3lJjcCIVbVL2NvWkjQ3",
            "resource": {
                "resourceType": "Encounter",
                "id": "eUqJ-3lJjcCIVbVL2NvWkjQ3",
                "identifier": [
                    {
                        "use": "usual",
                        "system": "urn:oid:1.2.840.114350.1.13.0.1.7.3.698084.8",
                        "value": "7198"
                    }
                ],
                "status": "finished",
                "class": {
                    "system": "urn:oid:1.2.840.114350.1.72.1.7.7.10.696784.13260",
                    "code": "13",
                    "display": "Support OP Encounter"
                },
                "type": [
                    {
                        "coding": [
                            {
                                "system": "urn:oid:1.2.840.114350.1.13.0.1.7.10.698084.30",
                                "code": "111",
                                "display": "Orders Only"
                            }
                        ],
                        "text": "Orders Only"
                    }
                ],
                "subject": {
                    "reference": "Patient/eCVAC1S2CS9QlQl5qk0C-uA3",
                    "display": "Liver, Len Txpp"
                },
                "episodeOfCare": [
                    {
                        "reference": "EpisodeOfCare/ekVWPlkKKXVt-CoeKnAiR3g3",
                        "type": "EpisodeOfCare",
                        "display": "Liver Episode (Transplanted  2/26/2010) - Transplant 1 "
                    }
                ],
                "period": {
                    "start": "2013-06-26",
                    "end": "2013-06-26"
                },
                "location": [
                    {
                        "location": {
                            "reference": "Location/e.zUbzUZH9WErlJkdM0-hMZY7Z6JkVK.ftghaWm0ZCLs3",
                            "display": "EMH Abdominal Transplant"
                        }
                    }
                ]
            },
            "search": {
                "mode": "match"
            }
        },
        {
            "link": [
                {
                    "relation": "self",
                    "url": "https://appmarket.epic.com/interconnect-amcurprd-oauth/api/FHIR/R4/Encounter/eeLoYwwWhjdhUmlUGrNbZpQ3"
                }
            ],
            "fullUrl": "https://appmarket.epic.com/interconnect-amcurprd-oauth/api/FHIR/R4/Encounter/eeLoYwwWhjdhUmlUGrNbZpQ3",
            "resource": {
                "resourceType": "Encounter",
                "id": "eeLoYwwWhjdhUmlUGrNbZpQ3",
                "identifier": [
                    {
                        "use": "usual",
                        "system": "urn:oid:1.2.840.114350.1.13.0.1.7.3.698084.8",
                        "value": "7200"
                    }
                ],
                "status": "in-progress",
                "class": {
                    "system": "urn:oid:1.2.840.114350.1.72.1.7.7.10.696784.13260",
                    "code": "13",
                    "display": "Support OP Encounter"
                },
                "type": [
                    {
                        "coding": [
                            {
                                "system": "urn:oid:1.2.840.114350.1.13.0.1.7.10.698084.30",
                                "code": "150",
                                "display": "Abstract"
                            }
                        ],
                        "text": "Abstract"
                    }
                ],
                "subject": {
                    "reference": "Patient/eCVAC1S2CS9QlQl5qk0C-uA3",
                    "display": "Liver, Len Txpp"
                },
                "episodeOfCare": [
                    {
                        "reference": "EpisodeOfCare/ekVWPlkKKXVt-CoeKnAiR3g3",
                        "type": "EpisodeOfCare",
                        "display": "Liver Episode (Transplanted  2/26/2010) - Transplant 1 "
                    }
                ],
                "period": {
                    "start": "2013-05-05",
                    "end": "2013-05-05"
                },
                "location": [
                    {
                        "location": {
                            "reference": "Location/e.zUbzUZH9WErlJkdM0-hMZY7Z6JkVK.ftghaWm0ZCLs3",
                            "display": "EMH Abdominal Transplant"
                        }
                    }
                ]
            },
            "search": {
                "mode": "match"
            }
        },
        {
            "link": [
                {
                    "relation": "self",
                    "url": "https://appmarket.epic.com/interconnect-amcurprd-oauth/api/FHIR/R4/Encounter/eYYakNshirja9ddBLiqLIkA3"
                }
            ],
            "fullUrl": "https://appmarket.epic.com/interconnect-amcurprd-oauth/api/FHIR/R4/Encounter/eYYakNshirja9ddBLiqLIkA3",
            "resource": {
                "resourceType": "Encounter",
                "id": "eYYakNshirja9ddBLiqLIkA3",
                "identifier": [
                    {
                        "use": "usual",
                        "system": "urn:oid:1.2.840.114350.1.13.0.1.7.3.698084.8",
                        "value": "7201"
                    }
                ],
                "status": "finished",
                "class": {
                    "system": "urn:oid:1.2.840.114350.1.72.1.7.7.10.696784.13260",
                    "code": "13",
                    "display": "Support OP Encounter"
                },
                "type": [
                    {
                        "coding": [
                            {
                                "system": "urn:oid:1.2.840.114350.1.13.0.1.7.10.698084.30",
                                "code": "111",
                                "display": "Orders Only"
                            }
                        ],
                        "text": "Orders Only"
                    }
                ],
                "subject": {
                    "reference": "Patient/eCVAC1S2CS9QlQl5qk0C-uA3",
                    "display": "Liver, Len Txpp"
                },
                "episodeOfCare": [
                    {
                        "reference": "EpisodeOfCare/ekVWPlkKKXVt-CoeKnAiR3g3",
                        "type": "EpisodeOfCare",
                        "display": "Liver Episode (Transplanted  2/26/2010) - Transplant 1 "
                    }
                ],
                "period": {
                    "start": "2013-04-22",
                    "end": "2013-04-22"
                },
                "location": [
                    {
                        "location": {
                            "reference": "Location/e.zUbzUZH9WErlJkdM0-hMZY7Z6JkVK.ftghaWm0ZCLs3",
                            "display": "EMH Abdominal Transplant"
                        }
                    }
                ]
            },
            "search": {
                "mode": "match"
            }
        },
        {
            "link": [
                {
                    "relation": "self",
                    "url": "https://appmarket.epic.com/interconnect-amcurprd-oauth/api/FHIR/R4/Encounter/eRgQBdmUYMKCAJ.2ZYt02gA3"
                }
            ],
            "fullUrl": "https://appmarket.epic.com/interconnect-amcurprd-oauth/api/FHIR/R4/Encounter/eRgQBdmUYMKCAJ.2ZYt02gA3",
            "resource": {
                "resourceType": "Encounter",
                "id": "eRgQBdmUYMKCAJ.2ZYt02gA3",
                "identifier": [
                    {
                        "use": "usual",
                        "system": "urn:oid:1.2.840.114350.1.13.0.1.7.3.698084.8",
                        "value": "7203"
                    }
                ],
                "status": "in-progress",
                "class": {
                    "system": "urn:oid:1.2.840.114350.1.72.1.7.7.10.696784.13260",
                    "code": "13",
                    "display": "Support OP Encounter"
                },
                "type": [
                    {
                        "coding": [
                            {
                                "system": "urn:oid:1.2.840.114350.1.13.0.1.7.10.698084.30",
                                "code": "150",
                                "display": "Abstract"
                            }
                        ],
                        "text": "Abstract"
                    }
                ],
                "subject": {
                    "reference": "Patient/eCVAC1S2CS9QlQl5qk0C-uA3",
                    "display": "Liver, Len Txpp"
                },
                "episodeOfCare": [
                    {
                        "reference": "EpisodeOfCare/ekVWPlkKKXVt-CoeKnAiR3g3",
                        "type": "EpisodeOfCare",
                        "display": "Liver Episode (Transplanted  2/26/2010) - Transplant 1 "
                    }
                ],
                "period": {
                    "start": "2013-04-17",
                    "end": "2013-04-17"
                },
                "location": [
                    {
                        "location": {
                            "reference": "Location/e.zUbzUZH9WErlJkdM0-hMZY7Z6JkVK.ftghaWm0ZCLs3",
                            "display": "EMH Abdominal Transplant"
                        }
                    }
                ]
            },
            "search": {
                "mode": "match"
            }
        },
        {
            "link": [
                {
                    "relation": "self",
                    "url": "https://appmarket.epic.com/interconnect-amcurprd-oauth/api/FHIR/R4/Encounter/e6GXykLQgf2omZmtQTwD5-A3"
                }
            ],
            "fullUrl": "https://appmarket.epic.com/interconnect-amcurprd-oauth/api/FHIR/R4/Encounter/e6GXykLQgf2omZmtQTwD5-A3",
            "resource": {
                "resourceType": "Encounter",
                "id": "e6GXykLQgf2omZmtQTwD5-A3",
                "identifier": [
                    {
                        "use": "usual",
                        "system": "urn:oid:1.2.840.114350.1.13.0.1.7.3.698084.8",
                        "value": "7205"
                    }
                ],
                "status": "unknown",
                "class": {
                    "system": "urn:oid:1.2.840.114350.1.72.1.7.7.10.696784.13260",
                    "code": "13",
                    "display": "Support OP Encounter"
                },
                "subject": {
                    "reference": "Patient/eCVAC1S2CS9QlQl5qk0C-uA3",
                    "display": "Liver, Len Txpp"
                },
                "period": {
                    "start": "2012-01-13",
                    "end": "2012-01-13"
                }
            },
            "search": {
                "mode": "match"
            }
        },
        {
            "link": [
                {
                    "relation": "self",
                    "url": "https://appmarket.epic.com/interconnect-amcurprd-oauth/api/FHIR/R4/Encounter/eYpZmDOzm8oiZsaoG8UYYzw3"
                }
            ],
            "fullUrl": "https://appmarket.epic.com/interconnect-amcurprd-oauth/api/FHIR/R4/Encounter/eYpZmDOzm8oiZsaoG8UYYzw3",
            "resource": {
                "resourceType": "Encounter",
                "id": "eYpZmDOzm8oiZsaoG8UYYzw3",
                "identifier": [
                    {
                        "use": "usual",
                        "system": "urn:oid:1.2.840.114350.1.13.0.1.7.3.698084.8",
                        "value": "7206"
                    }
                ],
                "status": "unknown",
                "class": {
                    "system": "urn:oid:1.2.840.114350.1.72.1.7.7.10.696784.13260",
                    "code": "13",
                    "display": "Support OP Encounter"
                },
                "subject": {
                    "reference": "Patient/eCVAC1S2CS9QlQl5qk0C-uA3",
                    "display": "Liver, Len Txpp"
                },
                "period": {
                    "start": "2012-01-13",
                    "end": "2012-01-13"
                }
            },
            "search": {
                "mode": "match"
            }
        },
        {
            "link": [
                {
                    "relation": "self",
                    "url": "https://appmarket.epic.com/interconnect-amcurprd-oauth/api/FHIR/R4/Encounter/eil1RiNWiju2p1U4jQNrJ4A3"
                }
            ],
            "fullUrl": "https://appmarket.epic.com/interconnect-amcurprd-oauth/api/FHIR/R4/Encounter/eil1RiNWiju2p1U4jQNrJ4A3",
            "resource": {
                "resourceType": "Encounter",
                "id": "eil1RiNWiju2p1U4jQNrJ4A3",
                "identifier": [
                    {
                        "use": "usual",
                        "system": "urn:oid:1.2.840.114350.1.13.0.1.7.3.698084.8",
                        "value": "7207"
                    }
                ],
                "status": "unknown",
                "class": {
                    "system": "urn:oid:1.2.840.114350.1.72.1.7.7.10.696784.13260",
                    "code": "13",
                    "display": "Support OP Encounter"
                },
                "subject": {
                    "reference": "Patient/eCVAC1S2CS9QlQl5qk0C-uA3",
                    "display": "Liver, Len Txpp"
                },
                "period": {
                    "start": "2012-01-12",
                    "end": "2012-01-12"
                }
            },
            "search": {
                "mode": "match"
            }
        },
        {
            "link": [
                {
                    "relation": "self",
                    "url": "https://appmarket.epic.com/interconnect-amcurprd-oauth/api/FHIR/R4/Encounter/efwqqJbMOilnm2CtU-BGAzw3"
                }
            ],
            "fullUrl": "https://appmarket.epic.com/interconnect-amcurprd-oauth/api/FHIR/R4/Encounter/efwqqJbMOilnm2CtU-BGAzw3",
            "resource": {
                "resourceType": "Encounter",
                "id": "efwqqJbMOilnm2CtU-BGAzw3",
                "identifier": [
                    {
                        "use": "usual",
                        "system": "urn:oid:1.2.840.114350.1.13.0.1.7.3.698084.8",
                        "value": "7208"
                    }
                ],
                "status": "unknown",
                "class": {
                    "system": "urn:oid:1.2.840.114350.1.72.1.7.7.10.696784.13260",
                    "code": "13",
                    "display": "Support OP Encounter"
                },
                "subject": {
                    "reference": "Patient/eCVAC1S2CS9QlQl5qk0C-uA3",
                    "display": "Liver, Len Txpp"
                },
                "period": {
                    "start": "2012-01-12",
                    "end": "2012-01-12"
                }
            },
            "search": {
                "mode": "match"
            }
        },
        {
            "link": [
                {
                    "relation": "self",
                    "url": "https://appmarket.epic.com/interconnect-amcurprd-oauth/api/FHIR/R4/Encounter/eOXgfuCZnXxtnnaTMxEUkYQ3"
                }
            ],
            "fullUrl": "https://appmarket.epic.com/interconnect-amcurprd-oauth/api/FHIR/R4/Encounter/eOXgfuCZnXxtnnaTMxEUkYQ3",
            "resource": {
                "resourceType": "Encounter",
                "id": "eOXgfuCZnXxtnnaTMxEUkYQ3",
                "identifier": [
                    {
                        "use": "usual",
                        "system": "urn:oid:1.2.840.114350.1.13.0.1.7.3.698084.8",
                        "value": "7209"
                    }
                ],
                "status": "unknown",
                "class": {
                    "system": "urn:oid:1.2.840.114350.1.72.1.7.7.10.696784.13260",
                    "code": "13",
                    "display": "Support OP Encounter"
                },
                "subject": {
                    "reference": "Patient/eCVAC1S2CS9QlQl5qk0C-uA3",
                    "display": "Liver, Len Txpp"
                },
                "period": {
                    "start": "2012-01-03",
                    "end": "2012-01-03"
                }
            },
            "search": {
                "mode": "match"
            }
        },
        {
            "link": [
                {
                    "relation": "self",
                    "url": "https://appmarket.epic.com/interconnect-amcurprd-oauth/api/FHIR/R4/Encounter/eFeS4JN2Og2JMifanz.QOBA3"
                }
            ],
            "fullUrl": "https://appmarket.epic.com/interconnect-amcurprd-oauth/api/FHIR/R4/Encounter/eFeS4JN2Og2JMifanz.QOBA3",
            "resource": {
                "resourceType": "Encounter",
                "id": "eFeS4JN2Og2JMifanz.QOBA3",
                "identifier": [
                    {
                        "use": "usual",
                        "system": "urn:oid:1.2.840.114350.1.13.0.1.7.3.698084.8",
                        "value": "7210"
                    }
                ],
                "status": "unknown",
                "class": {
                    "system": "urn:oid:1.2.840.114350.1.72.1.7.7.10.696784.13260",
                    "code": "13",
                    "display": "Support OP Encounter"
                },
                "subject": {
                    "reference": "Patient/eCVAC1S2CS9QlQl5qk0C-uA3",
                    "display": "Liver, Len Txpp"
                },
                "period": {
                    "start": "2011-12-20",
                    "end": "2011-12-20"
                }
            },
            "search": {
                "mode": "match"
            }
        },
        {
            "link": [
                {
                    "relation": "self",
                    "url": "https://appmarket.epic.com/interconnect-amcurprd-oauth/api/FHIR/R4/Encounter/euf3nPifNVtbrxggLJKtDoQ3"
                }
            ],
            "fullUrl": "https://appmarket.epic.com/interconnect-amcurprd-oauth/api/FHIR/R4/Encounter/euf3nPifNVtbrxggLJKtDoQ3",
            "resource": {
                "resourceType": "Encounter",
                "id": "euf3nPifNVtbrxggLJKtDoQ3",
                "identifier": [
                    {
                        "use": "usual",
                        "system": "urn:oid:1.2.840.114350.1.13.0.1.7.3.698084.8",
                        "value": "7211"
                    }
                ],
                "status": "unknown",
                "class": {
                    "system": "urn:oid:1.2.840.114350.1.72.1.7.7.10.696784.13260",
                    "code": "13",
                    "display": "Support OP Encounter"
                },
                "subject": {
                    "reference": "Patient/eCVAC1S2CS9QlQl5qk0C-uA3",
                    "display": "Liver, Len Txpp"
                },
                "period": {
                    "start": "2011-11-21",
                    "end": "2011-11-21"
                }
            },
            "search": {
                "mode": "match"
            }
        },
        {
            "link": [
                {
                    "relation": "self",
                    "url": "https://appmarket.epic.com/interconnect-amcurprd-oauth/api/FHIR/R4/Encounter/eqV94fi7vthyG4pq5fxhzug3"
                }
            ],
            "fullUrl": "https://appmarket.epic.com/interconnect-amcurprd-oauth/api/FHIR/R4/Encounter/eqV94fi7vthyG4pq5fxhzug3",
            "resource": {
                "resourceType": "Encounter",
                "id": "eqV94fi7vthyG4pq5fxhzug3",
                "identifier": [
                    {
                        "use": "usual",
                        "system": "urn:oid:1.2.840.114350.1.13.0.1.7.3.698084.8",
                        "value": "7212"
                    }
                ],
                "status": "unknown",
                "class": {
                    "system": "urn:oid:1.2.840.114350.1.72.1.7.7.10.696784.13260",
                    "code": "13",
                    "display": "Support OP Encounter"
                },
                "subject": {
                    "reference": "Patient/eCVAC1S2CS9QlQl5qk0C-uA3",
                    "display": "Liver, Len Txpp"
                },
                "period": {
                    "start": "2011-11-03",
                    "end": "2011-11-03"
                }
            },
            "search": {
                "mode": "match"
            }
        },
        {
            "link": [
                {
                    "relation": "self",
                    "url": "https://appmarket.epic.com/interconnect-amcurprd-oauth/api/FHIR/R4/Encounter/e1Ms2eb4mkMA6K2CcJVg60A3"
                }
            ],
            "fullUrl": "https://appmarket.epic.com/interconnect-amcurprd-oauth/api/FHIR/R4/Encounter/e1Ms2eb4mkMA6K2CcJVg60A3",
            "resource": {
                "resourceType": "Encounter",
                "id": "e1Ms2eb4mkMA6K2CcJVg60A3",
                "identifier": [
                    {
                        "use": "usual",
                        "system": "urn:oid:1.2.840.114350.1.13.0.1.7.3.698084.8",
                        "value": "7213"
                    }
                ],
                "status": "unknown",
                "class": {
                    "system": "urn:oid:1.2.840.114350.1.72.1.7.7.10.696784.13260",
                    "code": "13",
                    "display": "Support OP Encounter"
                },
                "subject": {
                    "reference": "Patient/eCVAC1S2CS9QlQl5qk0C-uA3",
                    "display": "Liver, Len Txpp"
                },
                "period": {
                    "start": "2011-10-24",
                    "end": "2011-10-24"
                }
            },
            "search": {
                "mode": "match"
            }
        },
        {
            "link": [
                {
                    "relation": "self",
                    "url": "https://appmarket.epic.com/interconnect-amcurprd-oauth/api/FHIR/R4/Encounter/esoK9KPwyRi3KL1m4r.c0Xw3"
                }
            ],
            "fullUrl": "https://appmarket.epic.com/interconnect-amcurprd-oauth/api/FHIR/R4/Encounter/esoK9KPwyRi3KL1m4r.c0Xw3",
            "resource": {
                "resourceType": "Encounter",
                "id": "esoK9KPwyRi3KL1m4r.c0Xw3",
                "identifier": [
                    {
                        "use": "usual",
                        "system": "urn:oid:1.2.840.114350.1.13.0.1.7.3.698084.8",
                        "value": "7214"
                    }
                ],
                "status": "unknown",
                "class": {
                    "system": "urn:oid:1.2.840.114350.1.72.1.7.7.10.696784.13260",
                    "code": "13",
                    "display": "Support OP Encounter"
                },
                "subject": {
                    "reference": "Patient/eCVAC1S2CS9QlQl5qk0C-uA3",
                    "display": "Liver, Len Txpp"
                },
                "period": {
                    "start": "2011-10-24",
                    "end": "2011-10-24"
                }
            },
            "search": {
                "mode": "match"
            }
        },
        {
            "link": [
                {
                    "relation": "self",
                    "url": "https://appmarket.epic.com/interconnect-amcurprd-oauth/api/FHIR/R4/Encounter/exVLEeNsnsf1vWPkg9kPBJw3"
                }
            ],
            "fullUrl": "https://appmarket.epic.com/interconnect-amcurprd-oauth/api/FHIR/R4/Encounter/exVLEeNsnsf1vWPkg9kPBJw3",
            "resource": {
                "resourceType": "Encounter",
                "id": "exVLEeNsnsf1vWPkg9kPBJw3",
                "identifier": [
                    {
                        "use": "usual",
                        "system": "urn:oid:1.2.840.114350.1.13.0.1.7.3.698084.8",
                        "value": "7215"
                    }
                ],
                "status": "unknown",
                "class": {
                    "system": "urn:oid:1.2.840.114350.1.72.1.7.7.10.696784.13260",
                    "code": "13",
                    "display": "Support OP Encounter"
                },
                "subject": {
                    "reference": "Patient/eCVAC1S2CS9QlQl5qk0C-uA3",
                    "display": "Liver, Len Txpp"
                },
                "period": {
                    "start": "2011-10-17",
                    "end": "2011-10-17"
                }
            },
            "search": {
                "mode": "match"
            }
        },
        {
            "link": [
                {
                    "relation": "self",
                    "url": "https://appmarket.epic.com/interconnect-amcurprd-oauth/api/FHIR/R4/Encounter/emIOhb08zyhflLpgaXSWspg3"
                }
            ],
            "fullUrl": "https://appmarket.epic.com/interconnect-amcurprd-oauth/api/FHIR/R4/Encounter/emIOhb08zyhflLpgaXSWspg3",
            "resource": {
                "resourceType": "Encounter",
                "id": "emIOhb08zyhflLpgaXSWspg3",
                "identifier": [
                    {
                        "use": "usual",
                        "system": "urn:oid:1.2.840.114350.1.13.0.1.7.3.698084.8",
                        "value": "7216"
                    }
                ],
                "status": "unknown",
                "class": {
                    "system": "urn:oid:1.2.840.114350.1.72.1.7.7.10.696784.13260",
                    "code": "13",
                    "display": "Support OP Encounter"
                },
                "subject": {
                    "reference": "Patient/eCVAC1S2CS9QlQl5qk0C-uA3",
                    "display": "Liver, Len Txpp"
                },
                "period": {
                    "start": "2011-10-12",
                    "end": "2011-10-12"
                }
            },
            "search": {
                "mode": "match"
            }
        },
        {
            "link": [
                {
                    "relation": "self",
                    "url": "https://appmarket.epic.com/interconnect-amcurprd-oauth/api/FHIR/R4/Encounter/eF1fTX3-.tDEYw.oYT1IKcg3"
                }
            ],
            "fullUrl": "https://appmarket.epic.com/interconnect-amcurprd-oauth/api/FHIR/R4/Encounter/eF1fTX3-.tDEYw.oYT1IKcg3",
            "resource": {
                "resourceType": "Encounter",
                "id": "eF1fTX3-.tDEYw.oYT1IKcg3",
                "identifier": [
                    {
                        "use": "usual",
                        "system": "urn:oid:1.2.840.114350.1.13.0.1.7.3.698084.8",
                        "value": "7217"
                    }
                ],
                "status": "unknown",
                "class": {
                    "system": "urn:oid:1.2.840.114350.1.72.1.7.7.10.696784.13260",
                    "code": "13",
                    "display": "Support OP Encounter"
                },
                "subject": {
                    "reference": "Patient/eCVAC1S2CS9QlQl5qk0C-uA3",
                    "display": "Liver, Len Txpp"
                },
                "period": {
                    "start": "2011-10-09",
                    "end": "2011-10-09"
                }
            },
            "search": {
                "mode": "match"
            }
        },
        {
            "link": [
                {
                    "relation": "self",
                    "url": "https://appmarket.epic.com/interconnect-amcurprd-oauth/api/FHIR/R4/Encounter/ew6RCQaYLhCDqlqyH310o9A3"
                }
            ],
            "fullUrl": "https://appmarket.epic.com/interconnect-amcurprd-oauth/api/FHIR/R4/Encounter/ew6RCQaYLhCDqlqyH310o9A3",
            "resource": {
                "resourceType": "Encounter",
                "id": "ew6RCQaYLhCDqlqyH310o9A3",
                "identifier": [
                    {
                        "use": "usual",
                        "system": "urn:oid:1.2.840.114350.1.13.0.1.7.3.698084.8",
                        "value": "7218"
                    }
                ],
                "status": "unknown",
                "class": {
                    "system": "urn:oid:1.2.840.114350.1.72.1.7.7.10.696784.13260",
                    "code": "13",
                    "display": "Support OP Encounter"
                },
                "subject": {
                    "reference": "Patient/eCVAC1S2CS9QlQl5qk0C-uA3",
                    "display": "Liver, Len Txpp"
                },
                "period": {
                    "start": "2011-10-05",
                    "end": "2011-10-05"
                }
            },
            "search": {
                "mode": "match"
            }
        },
        {
            "link": [
                {
                    "relation": "self",
                    "url": "https://appmarket.epic.com/interconnect-amcurprd-oauth/api/FHIR/R4/Encounter/epCzMJ-sEupM.bpZ7arIERQ3"
                }
            ],
            "fullUrl": "https://appmarket.epic.com/interconnect-amcurprd-oauth/api/FHIR/R4/Encounter/epCzMJ-sEupM.bpZ7arIERQ3",
            "resource": {
                "resourceType": "Encounter",
                "id": "epCzMJ-sEupM.bpZ7arIERQ3",
                "identifier": [
                    {
                        "use": "usual",
                        "system": "urn:oid:1.2.840.114350.1.13.0.1.7.3.698084.8",
                        "value": "7219"
                    }
                ],
                "status": "unknown",
                "class": {
                    "system": "urn:oid:1.2.840.114350.1.72.1.7.7.10.696784.13260",
                    "code": "13",
                    "display": "Support OP Encounter"
                },
                "subject": {
                    "reference": "Patient/eCVAC1S2CS9QlQl5qk0C-uA3",
                    "display": "Liver, Len Txpp"
                },
                "period": {
                    "start": "2011-10-05",
                    "end": "2011-10-05"
                }
            },
            "search": {
                "mode": "match"
            }
        },
        {
            "link": [
                {
                    "relation": "self",
                    "url": "https://appmarket.epic.com/interconnect-amcurprd-oauth/api/FHIR/R4/Encounter/et2FcsUs-MY5xhKwW5943Nw3"
                }
            ],
            "fullUrl": "https://appmarket.epic.com/interconnect-amcurprd-oauth/api/FHIR/R4/Encounter/et2FcsUs-MY5xhKwW5943Nw3",
            "resource": {
                "resourceType": "Encounter",
                "id": "et2FcsUs-MY5xhKwW5943Nw3",
                "identifier": [
                    {
                        "use": "usual",
                        "system": "urn:oid:1.2.840.114350.1.13.0.1.7.3.698084.8",
                        "value": "7220"
                    }
                ],
                "status": "unknown",
                "class": {
                    "system": "urn:oid:1.2.840.114350.1.72.1.7.7.10.696784.13260",
                    "code": "13",
                    "display": "Support OP Encounter"
                },
                "subject": {
                    "reference": "Patient/eCVAC1S2CS9QlQl5qk0C-uA3",
                    "display": "Liver, Len Txpp"
                },
                "period": {
                    "start": "2011-10-04",
                    "end": "2011-10-04"
                }
            },
            "search": {
                "mode": "match"
            }
        },
        {
            "link": [
                {
                    "relation": "self",
                    "url": "https://appmarket.epic.com/interconnect-amcurprd-oauth/api/FHIR/R4/Encounter/eavXjyGnnnARegE9JDPZLeg3"
                }
            ],
            "fullUrl": "https://appmarket.epic.com/interconnect-amcurprd-oauth/api/FHIR/R4/Encounter/eavXjyGnnnARegE9JDPZLeg3",
            "resource": {
                "resourceType": "Encounter",
                "id": "eavXjyGnnnARegE9JDPZLeg3",
                "identifier": [
                    {
                        "use": "usual",
                        "system": "urn:oid:1.2.840.114350.1.13.0.1.7.3.698084.8",
                        "value": "7221"
                    }
                ],
                "status": "unknown",
                "class": {
                    "system": "urn:oid:1.2.840.114350.1.72.1.7.7.10.696784.13260",
                    "code": "13",
                    "display": "Support OP Encounter"
                },
                "subject": {
                    "reference": "Patient/eCVAC1S2CS9QlQl5qk0C-uA3",
                    "display": "Liver, Len Txpp"
                },
                "period": {
                    "start": "2011-09-11",
                    "end": "2011-09-11"
                }
            },
            "search": {
                "mode": "match"
            }
        },
        {
            "link": [
                {
                    "relation": "self",
                    "url": "https://appmarket.epic.com/interconnect-amcurprd-oauth/api/FHIR/R4/Encounter/eB6Vv8Eys..AlpFwOLyT.dQ3"
                }
            ],
            "fullUrl": "https://appmarket.epic.com/interconnect-amcurprd-oauth/api/FHIR/R4/Encounter/eB6Vv8Eys..AlpFwOLyT.dQ3",
            "resource": {
                "resourceType": "Encounter",
                "id": "eB6Vv8Eys..AlpFwOLyT.dQ3",
                "identifier": [
                    {
                        "use": "usual",
                        "system": "urn:oid:1.2.840.114350.1.13.0.1.7.3.698084.8",
                        "value": "7222"
                    }
                ],
                "status": "unknown",
                "class": {
                    "system": "urn:oid:1.2.840.114350.1.72.1.7.7.10.696784.13260",
                    "code": "13",
                    "display": "Support OP Encounter"
                },
                "subject": {
                    "reference": "Patient/eCVAC1S2CS9QlQl5qk0C-uA3",
                    "display": "Liver, Len Txpp"
                },
                "period": {
                    "start": "2011-08-13",
                    "end": "2011-08-13"
                }
            },
            "search": {
                "mode": "match"
            }
        },
        {
            "link": [
                {
                    "relation": "self",
                    "url": "https://appmarket.epic.com/interconnect-amcurprd-oauth/api/FHIR/R4/Encounter/eiAMJTLR9BK5uayNIfak3vA3"
                }
            ],
            "fullUrl": "https://appmarket.epic.com/interconnect-amcurprd-oauth/api/FHIR/R4/Encounter/eiAMJTLR9BK5uayNIfak3vA3",
            "resource": {
                "resourceType": "Encounter",
                "id": "eiAMJTLR9BK5uayNIfak3vA3",
                "identifier": [
                    {
                        "use": "usual",
                        "system": "urn:oid:1.2.840.114350.1.13.0.1.7.3.698084.8",
                        "value": "7223"
                    }
                ],
                "status": "unknown",
                "class": {
                    "system": "urn:oid:1.2.840.114350.1.72.1.7.7.10.696784.13260",
                    "code": "13",
                    "display": "Support OP Encounter"
                },
                "subject": {
                    "reference": "Patient/eCVAC1S2CS9QlQl5qk0C-uA3",
                    "display": "Liver, Len Txpp"
                },
                "period": {
                    "start": "2011-07-31",
                    "end": "2011-07-31"
                }
            },
            "search": {
                "mode": "match"
            }
        },
        {
            "link": [
                {
                    "relation": "self",
                    "url": "https://appmarket.epic.com/interconnect-amcurprd-oauth/api/FHIR/R4/Encounter/eehLzCJdeOIfA0gIi7W3H3A3"
                }
            ],
            "fullUrl": "https://appmarket.epic.com/interconnect-amcurprd-oauth/api/FHIR/R4/Encounter/eehLzCJdeOIfA0gIi7W3H3A3",
            "resource": {
                "resourceType": "Encounter",
                "id": "eehLzCJdeOIfA0gIi7W3H3A3",
                "identifier": [
                    {
                        "use": "usual",
                        "system": "urn:oid:1.2.840.114350.1.13.0.1.7.3.698084.8",
                        "value": "7224"
                    }
                ],
                "status": "unknown",
                "class": {
                    "system": "urn:oid:1.2.840.114350.1.72.1.7.7.10.696784.13260",
                    "code": "13",
                    "display": "Support OP Encounter"
                },
                "subject": {
                    "reference": "Patient/eCVAC1S2CS9QlQl5qk0C-uA3",
                    "display": "Liver, Len Txpp"
                },
                "period": {
                    "start": "2011-07-26",
                    "end": "2011-07-26"
                }
            },
            "search": {
                "mode": "match"
            }
        },
        {
            "link": [
                {
                    "relation": "self",
                    "url": "https://appmarket.epic.com/interconnect-amcurprd-oauth/api/FHIR/R4/Encounter/eaxgKtse3dPaHrCiMJPBMUg3"
                }
            ],
            "fullUrl": "https://appmarket.epic.com/interconnect-amcurprd-oauth/api/FHIR/R4/Encounter/eaxgKtse3dPaHrCiMJPBMUg3",
            "resource": {
                "resourceType": "Encounter",
                "id": "eaxgKtse3dPaHrCiMJPBMUg3",
                "identifier": [
                    {
                        "use": "usual",
                        "system": "urn:oid:1.2.840.114350.1.13.0.1.7.3.698084.8",
                        "value": "7225"
                    }
                ],
                "status": "unknown",
                "class": {
                    "system": "urn:oid:1.2.840.114350.1.72.1.7.7.10.696784.13260",
                    "code": "13",
                    "display": "Support OP Encounter"
                },
                "subject": {
                    "reference": "Patient/eCVAC1S2CS9QlQl5qk0C-uA3",
                    "display": "Liver, Len Txpp"
                },
                "period": {
                    "start": "2011-07-26",
                    "end": "2011-07-26"
                }
            },
            "search": {
                "mode": "match"
            }
        },
        {
            "link": [
                {
                    "relation": "self",
                    "url": "https://appmarket.epic.com/interconnect-amcurprd-oauth/api/FHIR/R4/Encounter/ekuPq9npydYl5HBDtaLC6.Q3"
                }
            ],
            "fullUrl": "https://appmarket.epic.com/interconnect-amcurprd-oauth/api/FHIR/R4/Encounter/ekuPq9npydYl5HBDtaLC6.Q3",
            "resource": {
                "resourceType": "Encounter",
                "id": "ekuPq9npydYl5HBDtaLC6.Q3",
                "identifier": [
                    {
                        "use": "usual",
                        "system": "urn:oid:1.2.840.114350.1.13.0.1.7.3.698084.8",
                        "value": "7226"
                    }
                ],
                "status": "unknown",
                "class": {
                    "system": "urn:oid:1.2.840.114350.1.72.1.7.7.10.696784.13260",
                    "code": "13",
                    "display": "Support OP Encounter"
                },
                "subject": {
                    "reference": "Patient/eCVAC1S2CS9QlQl5qk0C-uA3",
                    "display": "Liver, Len Txpp"
                },
                "period": {
                    "start": "2011-07-26",
                    "end": "2011-07-26"
                }
            },
            "search": {
                "mode": "match"
            }
        },
        {
            "link": [
                {
                    "relation": "self",
                    "url": "https://appmarket.epic.com/interconnect-amcurprd-oauth/api/FHIR/R4/Encounter/elfSe88n3HgEffL--KeU-3A3"
                }
            ],
            "fullUrl": "https://appmarket.epic.com/interconnect-amcurprd-oauth/api/FHIR/R4/Encounter/elfSe88n3HgEffL--KeU-3A3",
            "resource": {
                "resourceType": "Encounter",
                "id": "elfSe88n3HgEffL--KeU-3A3",
                "identifier": [
                    {
                        "use": "usual",
                        "system": "urn:oid:1.2.840.114350.1.13.0.1.7.3.698084.8",
                        "value": "7227"
                    }
                ],
                "status": "unknown",
                "class": {
                    "system": "urn:oid:1.2.840.114350.1.72.1.7.7.10.696784.13260",
                    "code": "13",
                    "display": "Support OP Encounter"
                },
                "subject": {
                    "reference": "Patient/eCVAC1S2CS9QlQl5qk0C-uA3",
                    "display": "Liver, Len Txpp"
                },
                "period": {
                    "start": "2011-06-22",
                    "end": "2011-06-22"
                }
            },
            "search": {
                "mode": "match"
            }
        },
        {
            "link": [
                {
                    "relation": "self",
                    "url": "https://appmarket.epic.com/interconnect-amcurprd-oauth/api/FHIR/R4/Encounter/e8ZYXFsiHFLX957TI-eCE5Q3"
                }
            ],
            "fullUrl": "https://appmarket.epic.com/interconnect-amcurprd-oauth/api/FHIR/R4/Encounter/e8ZYXFsiHFLX957TI-eCE5Q3",
            "resource": {
                "resourceType": "Encounter",
                "id": "e8ZYXFsiHFLX957TI-eCE5Q3",
                "identifier": [
                    {
                        "use": "usual",
                        "system": "urn:oid:1.2.840.114350.1.13.0.1.7.3.698084.8",
                        "value": "7228"
                    }
                ],
                "status": "unknown",
                "class": {
                    "system": "urn:oid:1.2.840.114350.1.72.1.7.7.10.696784.13260",
                    "code": "13",
                    "display": "Support OP Encounter"
                },
                "subject": {
                    "reference": "Patient/eCVAC1S2CS9QlQl5qk0C-uA3",
                    "display": "Liver, Len Txpp"
                },
                "period": {
                    "start": "2011-06-22",
                    "end": "2011-06-22"
                }
            },
            "search": {
                "mode": "match"
            }
        },
        {
            "link": [
                {
                    "relation": "self",
                    "url": "https://appmarket.epic.com/interconnect-amcurprd-oauth/api/FHIR/R4/Encounter/eTTKDR2tckmY4iH4FtVVuwg3"
                }
            ],
            "fullUrl": "https://appmarket.epic.com/interconnect-amcurprd-oauth/api/FHIR/R4/Encounter/eTTKDR2tckmY4iH4FtVVuwg3",
            "resource": {
                "resourceType": "Encounter",
                "id": "eTTKDR2tckmY4iH4FtVVuwg3",
                "identifier": [
                    {
                        "use": "usual",
                        "system": "urn:oid:1.2.840.114350.1.13.0.1.7.3.698084.8",
                        "value": "7229"
                    }
                ],
                "status": "unknown",
                "class": {
                    "system": "urn:oid:1.2.840.114350.1.72.1.7.7.10.696784.13260",
                    "code": "13",
                    "display": "Support OP Encounter"
                },
                "subject": {
                    "reference": "Patient/eCVAC1S2CS9QlQl5qk0C-uA3",
                    "display": "Liver, Len Txpp"
                },
                "period": {
                    "start": "2011-06-21",
                    "end": "2011-06-21"
                }
            },
            "search": {
                "mode": "match"
            }
        },
        {
            "link": [
                {
                    "relation": "self",
                    "url": "https://appmarket.epic.com/interconnect-amcurprd-oauth/api/FHIR/R4/Encounter/eFiuP0N1623lpb7fN80II5g3"
                }
            ],
            "fullUrl": "https://appmarket.epic.com/interconnect-amcurprd-oauth/api/FHIR/R4/Encounter/eFiuP0N1623lpb7fN80II5g3",
            "resource": {
                "resourceType": "Encounter",
                "id": "eFiuP0N1623lpb7fN80II5g3",
                "identifier": [
                    {
                        "use": "usual",
                        "system": "urn:oid:1.2.840.114350.1.13.0.1.7.3.698084.8",
                        "value": "7230"
                    }
                ],
                "status": "unknown",
                "class": {
                    "system": "urn:oid:1.2.840.114350.1.72.1.7.7.10.696784.13260",
                    "code": "13",
                    "display": "Support OP Encounter"
                },
                "subject": {
                    "reference": "Patient/eCVAC1S2CS9QlQl5qk0C-uA3",
                    "display": "Liver, Len Txpp"
                },
                "period": {
                    "start": "2011-06-21",
                    "end": "2011-06-21"
                }
            },
            "search": {
                "mode": "match"
            }
        },
        {
            "link": [
                {
                    "relation": "self",
                    "url": "https://appmarket.epic.com/interconnect-amcurprd-oauth/api/FHIR/R4/Encounter/eYlNV5orYtac-kOcCwytSug3"
                }
            ],
            "fullUrl": "https://appmarket.epic.com/interconnect-amcurprd-oauth/api/FHIR/R4/Encounter/eYlNV5orYtac-kOcCwytSug3",
            "resource": {
                "resourceType": "Encounter",
                "id": "eYlNV5orYtac-kOcCwytSug3",
                "identifier": [
                    {
                        "use": "usual",
                        "system": "urn:oid:1.2.840.114350.1.13.0.1.7.3.698084.8",
                        "value": "7231"
                    }
                ],
                "status": "unknown",
                "class": {
                    "system": "urn:oid:1.2.840.114350.1.72.1.7.7.10.696784.13260",
                    "code": "13",
                    "display": "Support OP Encounter"
                },
                "subject": {
                    "reference": "Patient/eCVAC1S2CS9QlQl5qk0C-uA3",
                    "display": "Liver, Len Txpp"
                },
                "period": {
                    "start": "2011-06-12",
                    "end": "2011-06-12"
                }
            },
            "search": {
                "mode": "match"
            }
        },
        {
            "link": [
                {
                    "relation": "self",
                    "url": "https://appmarket.epic.com/interconnect-amcurprd-oauth/api/FHIR/R4/Encounter/eDKNxPFkvM7.dNG.X-jcDnQ3"
                }
            ],
            "fullUrl": "https://appmarket.epic.com/interconnect-amcurprd-oauth/api/FHIR/R4/Encounter/eDKNxPFkvM7.dNG.X-jcDnQ3",
            "resource": {
                "resourceType": "Encounter",
                "id": "eDKNxPFkvM7.dNG.X-jcDnQ3",
                "identifier": [
                    {
                        "use": "usual",
                        "system": "urn:oid:1.2.840.114350.1.13.0.1.7.3.698084.8",
                        "value": "7232"
                    }
                ],
                "status": "unknown",
                "class": {
                    "system": "urn:oid:1.2.840.114350.1.72.1.7.7.10.696784.13260",
                    "code": "13",
                    "display": "Support OP Encounter"
                },
                "subject": {
                    "reference": "Patient/eCVAC1S2CS9QlQl5qk0C-uA3",
                    "display": "Liver, Len Txpp"
                },
                "period": {
                    "start": "2011-05-29",
                    "end": "2011-05-29"
                }
            },
            "search": {
                "mode": "match"
            }
        },
        {
            "link": [
                {
                    "relation": "self",
                    "url": "https://appmarket.epic.com/interconnect-amcurprd-oauth/api/FHIR/R4/Encounter/evaf9tRbfwF6O0wv2pmpoNA3"
                }
            ],
            "fullUrl": "https://appmarket.epic.com/interconnect-amcurprd-oauth/api/FHIR/R4/Encounter/evaf9tRbfwF6O0wv2pmpoNA3",
            "resource": {
                "resourceType": "Encounter",
                "id": "evaf9tRbfwF6O0wv2pmpoNA3",
                "identifier": [
                    {
                        "use": "usual",
                        "system": "urn:oid:1.2.840.114350.1.13.0.1.7.3.698084.8",
                        "value": "7233"
                    }
                ],
                "status": "unknown",
                "class": {
                    "system": "urn:oid:1.2.840.114350.1.72.1.7.7.10.696784.13260",
                    "code": "13",
                    "display": "Support OP Encounter"
                },
                "subject": {
                    "reference": "Patient/eCVAC1S2CS9QlQl5qk0C-uA3",
                    "display": "Liver, Len Txpp"
                },
                "period": {
                    "start": "2011-04-30",
                    "end": "2011-04-30"
                }
            },
            "search": {
                "mode": "match"
            }
        },
        {
            "link": [
                {
                    "relation": "self",
                    "url": "https://appmarket.epic.com/interconnect-amcurprd-oauth/api/FHIR/R4/Encounter/eutVm-hMMTJ4rKx44m3pusQ3"
                }
            ],
            "fullUrl": "https://appmarket.epic.com/interconnect-amcurprd-oauth/api/FHIR/R4/Encounter/eutVm-hMMTJ4rKx44m3pusQ3",
            "resource": {
                "resourceType": "Encounter",
                "id": "eutVm-hMMTJ4rKx44m3pusQ3",
                "identifier": [
                    {
                        "use": "usual",
                        "system": "urn:oid:1.2.840.114350.1.13.0.1.7.3.698084.8",
                        "value": "7234"
                    }
                ],
                "status": "unknown",
                "class": {
                    "system": "urn:oid:1.2.840.114350.1.72.1.7.7.10.696784.13260",
                    "code": "13",
                    "display": "Support OP Encounter"
                },
                "subject": {
                    "reference": "Patient/eCVAC1S2CS9QlQl5qk0C-uA3",
                    "display": "Liver, Len Txpp"
                },
                "period": {
                    "start": "2011-04-12",
                    "end": "2011-04-12"
                }
            },
            "search": {
                "mode": "match"
            }
        },
        {
            "link": [
                {
                    "relation": "self",
                    "url": "https://appmarket.epic.com/interconnect-amcurprd-oauth/api/FHIR/R4/Encounter/ecigjuW0tpd8zCq.S0xI.kg3"
                }
            ],
            "fullUrl": "https://appmarket.epic.com/interconnect-amcurprd-oauth/api/FHIR/R4/Encounter/ecigjuW0tpd8zCq.S0xI.kg3",
            "resource": {
                "resourceType": "Encounter",
                "id": "ecigjuW0tpd8zCq.S0xI.kg3",
                "identifier": [
                    {
                        "use": "usual",
                        "system": "urn:oid:1.2.840.114350.1.13.0.1.7.3.698084.8",
                        "value": "7235"
                    }
                ],
                "status": "unknown",
                "class": {
                    "system": "urn:oid:1.2.840.114350.1.72.1.7.7.10.696784.13260",
                    "code": "13",
                    "display": "Support OP Encounter"
                },
                "subject": {
                    "reference": "Patient/eCVAC1S2CS9QlQl5qk0C-uA3",
                    "display": "Liver, Len Txpp"
                },
                "period": {
                    "start": "2011-04-02",
                    "end": "2011-04-02"
                }
            },
            "search": {
                "mode": "match"
            }
        },
        {
            "link": [
                {
                    "relation": "self",
                    "url": "https://appmarket.epic.com/interconnect-amcurprd-oauth/api/FHIR/R4/Encounter/eU8vpL9tMiAQbDV71nKpSsQ3"
                }
            ],
            "fullUrl": "https://appmarket.epic.com/interconnect-amcurprd-oauth/api/FHIR/R4/Encounter/eU8vpL9tMiAQbDV71nKpSsQ3",
            "resource": {
                "resourceType": "Encounter",
                "id": "eU8vpL9tMiAQbDV71nKpSsQ3",
                "identifier": [
                    {
                        "use": "usual",
                        "system": "urn:oid:1.2.840.114350.1.13.0.1.7.3.698084.8",
                        "value": "7236"
                    }
                ],
                "status": "unknown",
                "class": {
                    "system": "urn:oid:1.2.840.114350.1.72.1.7.7.10.696784.13260",
                    "code": "13",
                    "display": "Support OP Encounter"
                },
                "subject": {
                    "reference": "Patient/eCVAC1S2CS9QlQl5qk0C-uA3",
                    "display": "Liver, Len Txpp"
                },
                "period": {
                    "start": "2011-04-02",
                    "end": "2011-04-02"
                }
            },
            "search": {
                "mode": "match"
            }
        },
        {
            "link": [
                {
                    "relation": "self",
                    "url": "https://appmarket.epic.com/interconnect-amcurprd-oauth/api/FHIR/R4/Encounter/eCI02WJpfHpzU0bpBKBCsRQ3"
                }
            ],
            "fullUrl": "https://appmarket.epic.com/interconnect-amcurprd-oauth/api/FHIR/R4/Encounter/eCI02WJpfHpzU0bpBKBCsRQ3",
            "resource": {
                "resourceType": "Encounter",
                "id": "eCI02WJpfHpzU0bpBKBCsRQ3",
                "identifier": [
                    {
                        "use": "usual",
                        "system": "urn:oid:1.2.840.114350.1.13.0.1.7.3.698084.8",
                        "value": "7237"
                    }
                ],
                "status": "unknown",
                "class": {
                    "system": "urn:oid:1.2.840.114350.1.72.1.7.7.10.696784.13260",
                    "code": "13",
                    "display": "Support OP Encounter"
                },
                "subject": {
                    "reference": "Patient/eCVAC1S2CS9QlQl5qk0C-uA3",
                    "display": "Liver, Len Txpp"
                },
                "period": {
                    "start": "2011-03-26",
                    "end": "2011-03-26"
                }
            },
            "search": {
                "mode": "match"
            }
        },
        {
            "link": [
                {
                    "relation": "self",
                    "url": "https://appmarket.epic.com/interconnect-amcurprd-oauth/api/FHIR/R4/Encounter/eYZHfSNuaZ.kDcywuRCGX-g3"
                }
            ],
            "fullUrl": "https://appmarket.epic.com/interconnect-amcurprd-oauth/api/FHIR/R4/Encounter/eYZHfSNuaZ.kDcywuRCGX-g3",
            "resource": {
                "resourceType": "Encounter",
                "id": "eYZHfSNuaZ.kDcywuRCGX-g3",
                "identifier": [
                    {
                        "use": "usual",
                        "system": "urn:oid:1.2.840.114350.1.13.0.1.7.3.698084.8",
                        "value": "7238"
                    }
                ],
                "status": "unknown",
                "class": {
                    "system": "urn:oid:1.2.840.114350.1.72.1.7.7.10.696784.13260",
                    "code": "13",
                    "display": "Support OP Encounter"
                },
                "subject": {
                    "reference": "Patient/eCVAC1S2CS9QlQl5qk0C-uA3",
                    "display": "Liver, Len Txpp"
                },
                "period": {
                    "start": "2011-03-21",
                    "end": "2011-03-21"
                }
            },
            "search": {
                "mode": "match"
            }
        },
        {
            "link": [
                {
                    "relation": "self",
                    "url": "https://appmarket.epic.com/interconnect-amcurprd-oauth/api/FHIR/R4/Encounter/eBYO.lNKEqus-keAgldG1SA3"
                }
            ],
            "fullUrl": "https://appmarket.epic.com/interconnect-amcurprd-oauth/api/FHIR/R4/Encounter/eBYO.lNKEqus-keAgldG1SA3",
            "resource": {
                "resourceType": "Encounter",
                "id": "eBYO.lNKEqus-keAgldG1SA3",
                "identifier": [
                    {
                        "use": "usual",
                        "system": "urn:oid:1.2.840.114350.1.13.0.1.7.3.698084.8",
                        "value": "7239"
                    }
                ],
                "status": "unknown",
                "class": {
                    "system": "urn:oid:1.2.840.114350.1.72.1.7.7.10.696784.13260",
                    "code": "13",
                    "display": "Support OP Encounter"
                },
                "subject": {
                    "reference": "Patient/eCVAC1S2CS9QlQl5qk0C-uA3",
                    "display": "Liver, Len Txpp"
                },
                "period": {
                    "start": "2011-03-18",
                    "end": "2011-03-18"
                }
            },
            "search": {
                "mode": "match"
            }
        },
        {
            "link": [
                {
                    "relation": "self",
                    "url": "https://appmarket.epic.com/interconnect-amcurprd-oauth/api/FHIR/R4/Encounter/eEkP7-83.EGiSnXW0qkXUoQ3"
                }
            ],
            "fullUrl": "https://appmarket.epic.com/interconnect-amcurprd-oauth/api/FHIR/R4/Encounter/eEkP7-83.EGiSnXW0qkXUoQ3",
            "resource": {
                "resourceType": "Encounter",
                "id": "eEkP7-83.EGiSnXW0qkXUoQ3",
                "identifier": [
                    {
                        "use": "usual",
                        "system": "urn:oid:1.2.840.114350.1.13.0.1.7.3.698084.8",
                        "value": "7240"
                    }
                ],
                "status": "unknown",
                "class": {
                    "system": "urn:oid:1.2.840.114350.1.72.1.7.7.10.696784.13260",
                    "code": "13",
                    "display": "Support OP Encounter"
                },
                "subject": {
                    "reference": "Patient/eCVAC1S2CS9QlQl5qk0C-uA3",
                    "display": "Liver, Len Txpp"
                },
                "period": {
                    "start": "2011-03-14",
                    "end": "2011-03-14"
                }
            },
            "search": {
                "mode": "match"
            }
        },
        {
            "link": [
                {
                    "relation": "self",
                    "url": "https://appmarket.epic.com/interconnect-amcurprd-oauth/api/FHIR/R4/Encounter/eQ2XQlJ6INdGPrPLXB3oLDw3"
                }
            ],
            "fullUrl": "https://appmarket.epic.com/interconnect-amcurprd-oauth/api/FHIR/R4/Encounter/eQ2XQlJ6INdGPrPLXB3oLDw3",
            "resource": {
                "resourceType": "Encounter",
                "id": "eQ2XQlJ6INdGPrPLXB3oLDw3",
                "identifier": [
                    {
                        "use": "usual",
                        "system": "urn:oid:1.2.840.114350.1.13.0.1.7.3.698084.8",
                        "value": "7241"
                    }
                ],
                "status": "unknown",
                "class": {
                    "system": "urn:oid:1.2.840.114350.1.72.1.7.7.10.696784.13260",
                    "code": "13",
                    "display": "Support OP Encounter"
                },
                "subject": {
                    "reference": "Patient/eCVAC1S2CS9QlQl5qk0C-uA3",
                    "display": "Liver, Len Txpp"
                },
                "period": {
                    "start": "2011-03-14",
                    "end": "2011-03-14"
                }
            },
            "search": {
                "mode": "match"
            }
        },
        {
            "link": [
                {
                    "relation": "self",
                    "url": "https://appmarket.epic.com/interconnect-amcurprd-oauth/api/FHIR/R4/Encounter/ekUWr-X3Kz73vftFuC.zAhA3"
                }
            ],
            "fullUrl": "https://appmarket.epic.com/interconnect-amcurprd-oauth/api/FHIR/R4/Encounter/ekUWr-X3Kz73vftFuC.zAhA3",
            "resource": {
                "resourceType": "Encounter",
                "id": "ekUWr-X3Kz73vftFuC.zAhA3",
                "identifier": [
                    {
                        "use": "usual",
                        "system": "urn:oid:1.2.840.114350.1.13.0.1.7.3.698084.8",
                        "value": "7242"
                    }
                ],
                "status": "unknown",
                "class": {
                    "system": "urn:oid:1.2.840.114350.1.72.1.7.7.10.696784.13260",
                    "code": "13",
                    "display": "Support OP Encounter"
                },
                "subject": {
                    "reference": "Patient/eCVAC1S2CS9QlQl5qk0C-uA3",
                    "display": "Liver, Len Txpp"
                },
                "period": {
                    "start": "2011-03-13",
                    "end": "2011-03-13"
                }
            },
            "search": {
                "mode": "match"
            }
        },
        {
            "link": [
                {
                    "relation": "self",
                    "url": "https://appmarket.epic.com/interconnect-amcurprd-oauth/api/FHIR/R4/Encounter/ecjgHb6ggutcIYNDT.mLM-Q3"
                }
            ],
            "fullUrl": "https://appmarket.epic.com/interconnect-amcurprd-oauth/api/FHIR/R4/Encounter/ecjgHb6ggutcIYNDT.mLM-Q3",
            "resource": {
                "resourceType": "Encounter",
                "id": "ecjgHb6ggutcIYNDT.mLM-Q3",
                "identifier": [
                    {
                        "use": "usual",
                        "system": "urn:oid:1.2.840.114350.1.13.0.1.7.3.698084.8",
                        "value": "7243"
                    }
                ],
                "status": "unknown",
                "class": {
                    "system": "urn:oid:1.2.840.114350.1.72.1.7.7.10.696784.13260",
                    "code": "13",
                    "display": "Support OP Encounter"
                },
                "subject": {
                    "reference": "Patient/eCVAC1S2CS9QlQl5qk0C-uA3",
                    "display": "Liver, Len Txpp"
                },
                "period": {
                    "start": "2011-02-18",
                    "end": "2011-02-18"
                }
            },
            "search": {
                "mode": "match"
            }
        },
        {
            "link": [
                {
                    "relation": "self",
                    "url": "https://appmarket.epic.com/interconnect-amcurprd-oauth/api/FHIR/R4/Encounter/e.Yh6GbGrTHgOvluC7R7svQ3"
                }
            ],
            "fullUrl": "https://appmarket.epic.com/interconnect-amcurprd-oauth/api/FHIR/R4/Encounter/e.Yh6GbGrTHgOvluC7R7svQ3",
            "resource": {
                "resourceType": "Encounter",
                "id": "e.Yh6GbGrTHgOvluC7R7svQ3",
                "identifier": [
                    {
                        "use": "usual",
                        "system": "urn:oid:1.2.840.114350.1.13.0.1.7.3.698084.8",
                        "value": "7244"
                    }
                ],
                "status": "unknown",
                "class": {
                    "system": "urn:oid:1.2.840.114350.1.72.1.7.7.10.696784.13260",
                    "code": "13",
                    "display": "Support OP Encounter"
                },
                "subject": {
                    "reference": "Patient/eCVAC1S2CS9QlQl5qk0C-uA3",
                    "display": "Liver, Len Txpp"
                },
                "period": {
                    "start": "2011-01-20",
                    "end": "2011-01-20"
                }
            },
            "search": {
                "mode": "match"
            }
        },
        {
            "link": [
                {
                    "relation": "self",
                    "url": "https://appmarket.epic.com/interconnect-amcurprd-oauth/api/FHIR/R4/Encounter/eZI39E78u8BLe28W4CfZ9kA3"
                }
            ],
            "fullUrl": "https://appmarket.epic.com/interconnect-amcurprd-oauth/api/FHIR/R4/Encounter/eZI39E78u8BLe28W4CfZ9kA3",
            "resource": {
                "resourceType": "Encounter",
                "id": "eZI39E78u8BLe28W4CfZ9kA3",
                "identifier": [
                    {
                        "use": "usual",
                        "system": "urn:oid:1.2.840.114350.1.13.0.1.7.3.698084.8",
                        "value": "7245"
                    }
                ],
                "status": "unknown",
                "class": {
                    "system": "urn:oid:1.2.840.114350.1.72.1.7.7.10.696784.13260",
                    "code": "13",
                    "display": "Support OP Encounter"
                },
                "subject": {
                    "reference": "Patient/eCVAC1S2CS9QlQl5qk0C-uA3",
                    "display": "Liver, Len Txpp"
                },
                "period": {
                    "start": "2011-01-07",
                    "end": "2011-01-07"
                }
            },
            "search": {
                "mode": "match"
            }
        },
        {
            "link": [
                {
                    "relation": "self",
                    "url": "https://appmarket.epic.com/interconnect-amcurprd-oauth/api/FHIR/R4/Encounter/eH4pTgNW7kUfbH73F6J95ag3"
                }
            ],
            "fullUrl": "https://appmarket.epic.com/interconnect-amcurprd-oauth/api/FHIR/R4/Encounter/eH4pTgNW7kUfbH73F6J95ag3",
            "resource": {
                "resourceType": "Encounter",
                "id": "eH4pTgNW7kUfbH73F6J95ag3",
                "identifier": [
                    {
                        "use": "usual",
                        "system": "urn:oid:1.2.840.114350.1.13.0.1.7.3.698084.8",
                        "value": "7246"
                    }
                ],
                "status": "unknown",
                "class": {
                    "system": "urn:oid:1.2.840.114350.1.72.1.7.7.10.696784.13260",
                    "code": "13",
                    "display": "Support OP Encounter"
                },
                "subject": {
                    "reference": "Patient/eCVAC1S2CS9QlQl5qk0C-uA3",
                    "display": "Liver, Len Txpp"
                },
                "period": {
                    "start": "2011-01-02",
                    "end": "2011-01-02"
                }
            },
            "search": {
                "mode": "match"
            }
        },
        {
            "link": [
                {
                    "relation": "self",
                    "url": "https://appmarket.epic.com/interconnect-amcurprd-oauth/api/FHIR/R4/Encounter/eaeXDIqwA1EnZ2M5ax5Z1vQ3"
                }
            ],
            "fullUrl": "https://appmarket.epic.com/interconnect-amcurprd-oauth/api/FHIR/R4/Encounter/eaeXDIqwA1EnZ2M5ax5Z1vQ3",
            "resource": {
                "resourceType": "Encounter",
                "id": "eaeXDIqwA1EnZ2M5ax5Z1vQ3",
                "identifier": [
                    {
                        "use": "usual",
                        "system": "urn:oid:1.2.840.114350.1.13.0.1.7.3.698084.8",
                        "value": "7247"
                    }
                ],
                "status": "unknown",
                "class": {
                    "system": "urn:oid:1.2.840.114350.1.72.1.7.7.10.696784.13260",
                    "code": "13",
                    "display": "Support OP Encounter"
                },
                "subject": {
                    "reference": "Patient/eCVAC1S2CS9QlQl5qk0C-uA3",
                    "display": "Liver, Len Txpp"
                },
                "period": {
                    "start": "2011-01-02",
                    "end": "2011-01-02"
                }
            },
            "search": {
                "mode": "match"
            }
        },
        {
            "link": [
                {
                    "relation": "self",
                    "url": "https://appmarket.epic.com/interconnect-amcurprd-oauth/api/FHIR/R4/Encounter/eWwL2EDNIW.yEDv.LAONerQ3"
                }
            ],
            "fullUrl": "https://appmarket.epic.com/interconnect-amcurprd-oauth/api/FHIR/R4/Encounter/eWwL2EDNIW.yEDv.LAONerQ3",
            "resource": {
                "resourceType": "Encounter",
                "id": "eWwL2EDNIW.yEDv.LAONerQ3",
                "identifier": [
                    {
                        "use": "usual",
                        "system": "urn:oid:1.2.840.114350.1.13.0.1.7.3.698084.8",
                        "value": "7248"
                    }
                ],
                "status": "unknown",
                "class": {
                    "system": "urn:oid:1.2.840.114350.1.72.1.7.7.10.696784.13260",
                    "code": "13",
                    "display": "Support OP Encounter"
                },
                "subject": {
                    "reference": "Patient/eCVAC1S2CS9QlQl5qk0C-uA3",
                    "display": "Liver, Len Txpp"
                },
                "period": {
                    "start": "2011-01-02",
                    "end": "2011-01-02"
                }
            },
            "search": {
                "mode": "match"
            }
        },
        {
            "link": [
                {
                    "relation": "self",
                    "url": "https://appmarket.epic.com/interconnect-amcurprd-oauth/api/FHIR/R4/Patient/eCVAC1S2CS9QlQl5qk0C-uA3"
                }
            ],
            "fullUrl": "https://appmarket.epic.com/interconnect-amcurprd-oauth/api/FHIR/R4/Patient/eCVAC1S2CS9QlQl5qk0C-uA3",
            "resource": {
                "resourceType": "Patient",
                "id": "eCVAC1S2CS9QlQl5qk0C-uA3",
                "extension": [
                    {
                        "extension": [
                            {
                                "valueCoding": {
                                    "system": "http://terminology.hl7.org/CodeSystem/v3-NullFlavor",
                                    "code": "UNK",
                                    "display": "Unknown"
                                },
                                "url": "ombCategory"
                            },
                            {
                                "valueString": "Unknown",
                                "url": "text"
                            }
                        ],
                        "url": "http://hl7.org/fhir/us/core/StructureDefinition/us-core-race"
                    },
                    {
                        "extension": [
                            {
                                "valueString": "Unknown",
                                "url": "text"
                            }
                        ],
                        "url": "http://hl7.org/fhir/us/core/StructureDefinition/us-core-ethnicity"
                    },
                    {
                        "valueCodeableConcept": {
                            "coding": [
                                {
                                    "system": "urn:oid:1.2.840.114350.1.13.0.1.7.10.698084.130.657370.19999000",
                                    "code": "male",
                                    "display": "male"
                                }
                            ]
                        },
                        "url": "http://open.epic.com/FHIR/StructureDefinition/extension/legal-sex"
                    },
                    {
                        "valueCodeableConcept": {
                            "coding": [
                                {
                                    "system": "urn:oid:1.2.840.114350.1.13.0.1.7.10.698084.130.657370.19999000",
                                    "code": "male",
                                    "display": "male"
                                }
                            ]
                        },
                        "url": "http://open.epic.com/FHIR/StructureDefinition/extension/sex-for-clinical-use"
                    },
                    {
                        "valueCode": "M",
                        "url": "http://hl7.org/fhir/us/core/StructureDefinition/us-core-birthsex"
                    }
                ],
                "identifier": [
                    {
                        "use": "usual",
                        "system": "urn:oid:2.16.840.1.113883.4.1",
                        "value": "405-44-6468"
                    },
                    {
                        "use": "usual",
                        "type": {
                            "text": "CEID"
                        },
                        "system": "urn:epic:apporchard.curprod",
                        "value": "AO1HHGM968RWX9B"
                    },
                    {
                        "use": "usual",
                        "type": {
                            "text": "EPIC"
                        },
                        "system": "urn:oid:1.2.840.114350.1.1",
                        "value": "E3087"
                    },
                    {
                        "use": "usual",
                        "type": {
                            "text": "EXTERNAL"
                        },
                        "system": "urn:oid:1.2.840.114350.1.13.0.1.7.2.698084",
                        "value": "Z4978"
                    },
                    {
                        "use": "usual",
                        "type": {
                            "text": "FHIR"
                        },
                        "system": "http://open.epic.com/FHIR/StructureDefinition/patient-dstu2-fhir-id",
                        "value": "T6ly4B2tlJlkJgob8BbUTUP.V2ZKSMTy7tXfyMNMq9b0B"
                    },
                    {
                        "use": "usual",
                        "type": {
                            "text": "FHIR STU3"
                        },
                        "system": "http://open.epic.com/FHIR/StructureDefinition/patient-fhir-id",
                        "value": "eCVAC1S2CS9QlQl5qk0C-uA3"
                    },
                    {
                        "use": "usual",
                        "type": {
                            "text": "INTERNAL"
                        },
                        "system": "urn:oid:1.2.840.114350.1.13.0.1.7.2.698084",
                        "value": "     Z4978"
                    },
                    {
                        "use": "usual",
                        "type": {
                            "text": "MRN"
                        },
                        "system": "urn:oid:1.2.840.114350.1.13.0.1.7.5.737384.14",
                        "value": "202837"
                    }
                ],
                "active": true,
                "name": [
                    {
                        "use": "official",
                        "text": "Len Txpp Liver",
                        "family": "Liver",
                        "given": [
                            "Len",
                            "Txpp"
                        ]
                    },
                    {
                        "use": "usual",
                        "text": "Len Txpp Liver",
                        "family": "Liver",
                        "given": [
                            "Len",
                            "Txpp"
                        ]
                    }
                ],
                "gender": "male",
                "birthDate": "1967-04-17",
                "deceasedBoolean": false,
                "managingOrganization": {
                    "reference": "Organization/enRyWnSP963FYDpoks4NHOA3",
                    "display": "Epic Hospital System"
                }
            },
            "search": {
                "mode": "include"
            }
        },
        {
            "link": [
                {
                    "relation": "self",
                    "url": "https://appmarket.epic.com/interconnect-amcurprd-oauth/api/FHIR/R4/EpisodeOfCare/ekVWPlkKKXVt-CoeKnAiR3g3"
                }
            ],
            "fullUrl": "https://appmarket.epic.com/interconnect-amcurprd-oauth/api/FHIR/R4/EpisodeOfCare/ekVWPlkKKXVt-CoeKnAiR3g3",
            "resource": {
                "resourceType": "EpisodeOfCare",
                "id": "ekVWPlkKKXVt-CoeKnAiR3g3",
                "extension": [
                    {
                        "valueString": "Liver Episode (Transplanted  2/26/2010) - Transplant 1 ",
                        "url": "http://open.epic.com/FHIR/StructureDefinition/extension/episode-name"
                    },
                    {
                        "valueCodeableConcept": {
                            "coding": [
                                {
                                    "system": "urn:oid:1.2.840.114350.1.72.1.7.7.10.728366.30035",
                                    "code": "2",
                                    "display": "Recipient"
                                }
                            ],
                            "text": "Recipient"
                        },
                        "url": "http://open.epic.com/FHIR/StructureDefinition/extension/transplant-donor-or-recipient"
                    },
                    {
                        "extension": [
                            {
                                "valueCodeableConcept": {
                                    "coding": [
                                        {
                                            "system": "urn:oid:1.2.840.114350.1.72.1.7.7.10.728366.30030",
                                            "code": "8",
                                            "display": "Liver"
                                        }
                                    ],
                                    "text": "Liver"
                                },
                                "url": "organ-class"
                            },
                            {
                                "valueReference": {
                                    "reference": "Practitioner/e4fBRdwCD6bWDI76z9Bn9WA3",
                                    "type": "Practitioner",
                                    "display": "Coordinator Phoenix, RN"
                                },
                                "url": "coordinator"
                            }
                        ],
                        "url": "http://open.epic.com/FHIR/StructureDefinition/extension/transplant-organ-coordinator"
                    },
                    {
                        "extension": [
                            {
                                "valueCodeableConcept": {
                                    "coding": [
                                        {
                                            "system": "urn:oid:1.2.840.114350.1.72.1.7.7.10.728366.30105",
                                            "code": "50",
                                            "display": "Transplanted"
                                        }
                                    ],
                                    "text": "Transplanted"
                                },
                                "url": "phase"
                            },
                            {
                                "valueString": "Active Follow-up",
                                "url": "status"
                            },
                            {
                                "valueDate": "2013-10-05",
                                "url": "effective"
                            }
                        ],
                        "url": "http://open.epic.com/FHIR/StructureDefinition/extension/transplant-phase-status"
                    },
                    {
                        "valueDate": "2013-04-17",
                        "url": "http://open.epic.com/FHIR/StructureDefinition/extension/transplant-event-referral-date"
                    },
                    {
                        "valuePeriod": {
                            "start": "2013-04-17",
                            "end": "2013-05-05"
                        },
                        "url": "http://open.epic.com/FHIR/StructureDefinition/extension/transplant-event-evaluation"
                    },
                    {
                        "valueDate": "2013-05-05",
                        "url": "http://open.epic.com/FHIR/StructureDefinition/extension/transplant-event-waitlist-date"
                    },
                    {
                        "valueDate": "2013-10-04",
                        "url": "http://open.epic.com/FHIR/StructureDefinition/extension/transplant-event-admission-date"
                    },
                    {
                        "valueDate": "2013-10-05",
                        "url": "http://open.epic.com/FHIR/StructureDefinition/extension/transplant-event-transplanted-date"
                    },
                    {
                        "valueString": "University of Wisconsin Hospital and Clinics (Madison, WI)",
                        "url": "http://open.epic.com/FHIR/StructureDefinition/extension/transplant-center"
                    },
                    {
                        "valueReference": {
                            "reference": "BodyStructure/eeYq9BtLWn8pfr55KDqRvwzhJgPzLjartFgwuEO5eBh5driQzr2You7bDGSqFGZCa3",
                            "type": "BodyStructure",
                            "display": "Liver"
                        },
                        "url": "http://open.epic.com/FHIR/StructureDefinition/extension/transplant-organ"
                    }
                ],
                "status": "active",
                "type": [
                    {
                        "coding": [
                            {
                                "system": "urn:oid:1.2.840.114350.1.13.0.1.7.2.726668",
                                "code": "49",
                                "display": "Transplant"
                            },
                            {
                                "system": "urn:oid:1.2.840.114350.1.13.0.1.7.4.726668.130",
                                "code": "4",
                                "display": "Transplant"
                            }
                        ],
                        "text": "Transplant"
                    }
                ],
                "diagnosis": [
                    {
                        "condition": {
                            "reference": "Condition/eTpMgAIh8P8Yx.hURi.S9jQ3",
                            "type": "Condition",
                            "display": "Transplanted organ rejection"
                        }
                    },
                    {
                        "condition": {
                            "reference": "Condition/e3vGfCxHVth.lqDhWvj-hTw3",
                            "type": "Condition",
                            "display": "Hyperglycemia (Resolved)"
                        }
                    }
                ],
                "patient": {
                    "reference": "Patient/eCVAC1S2CS9QlQl5qk0C-uA3",
                    "type": "Patient",
                    "display": "Liver, Len Txpp"
                },
                "period": {
                    "start": "2013-04-17"
                },
                "team": [
                    {
                        "reference": "CareTeam/eMaiFzvsPdpBuZ5nNeM9nlsN2nYtM7LoItmCEEzV9Xmk3",
                        "type": "CareTeam"
                    }
                ]
            },
            "search": {
                "mode": "include"
            }
        }
    ]
}