{
    "resourceType": "Bundle",
    "type": "searchset",
    "total": 4,
    "link": [
        {
            "relation": "self",
            "url": "https://appmarket.epic.com/interconnect-amcurprd-oauth/api/FHIR/R4/Encounter?_include=Encounter:condition&_include=Encounter:episodeOfCare&_include=Encounter:partOf&_include=Encounter:subject&_format=json&patient=epb1m.0iTxBK3nygIAyG8gQ3"
        }
    ],
    "entry": [
        {
            "link": [
                {
                    "relation": "self",
                    "url": "https://appmarket.epic.com/interconnect-amcurprd-oauth/api/FHIR/R4/Encounter/emgR9PS4qRaE5s1ZoZNrMkA3"
                }
            ],
            "fullUrl": "https://appmarket.epic.com/interconnect-amcurprd-oauth/api/FHIR/R4/Encounter/emgR9PS4qRaE5s1ZoZNrMkA3",
            "resource": {
                "resourceType": "Encounter",
                "id": "emgR9PS4qRaE5s1ZoZNrMkA3",
                "identifier": [
                    {
                        "use": "usual",
                        "system": "urn:oid:1.2.840.114350.1.13.0.1.7.3.698084.8",
                        "value": "26396"
                    }
                ],
                "status": "unknown",
                "class": {
                    "system": "urn:oid:1.2.840.114350.1.72.1.7.7.10.696784.13260",
                    "code": "1",
                    "display": "Surgery Case"
                },
                "type": [
                    {
                        "coding": [
                            {
                                "system": "urn:oid:1.2.840.114350.1.13.0.1.7.10.698084.30",
                                "code": "51",
                                "display": "Surgery"
                            }
                        ],
                        "text": "Surgery"
                    }
                ],
                "subject": {
                    "reference": "Patient/epb1m.0iTxBK3nygIAyG8gQ3",
                    "display": "Deer, Dorothy OpTime"
                },
                "participant": [
                    {
                        "type": [
                            {
                                "coding": [
                                    {
                                        "system": "http://hl7.org/fhir/v3/ParticipationType",
                                        "code": "REF",
                                        "display": "referrer"
                                    }
                                ],
                                "text": "referrer"
                            }
                        ],
                        "individual": {
                            "reference": "Practitioner/eFDLlPwY9Zi.6EHce8wkRmA3",
                            "type": "Practitioner",
                            "display": "Outpatient Physician Family Medicine, MD"
                        }
                    },
                    {
                        "individual": {
                            "reference": "Practitioner/eFDLlPwY9Zi.6EHce8wkRmA3",
                            "type": "Practitioner",
                            "display": "Outpatient Physician Family Medicine, MD"
                        }
                    }
                ],
                "period": {
                    "start": "2024-08-02T12:00:00Z",
                    "end": "2024-08-02T14:50:00Z"
                },
                "location": [
                    {
                        "location": {
                            "reference": "Location/efR3SIdpRKF9BFBM5qakt9F5X1mWxjiAGu2hNTKbqOdI3",
                            "display": "EMH Operating Room"
                        }
                    }
                ],
                "partOf": {
                    "reference": "Encounter/ejeJ1dD29jCjg9Dw93tyOUA3",
                    "identifier": {
                        "use": "usual",
                        "system": "urn:oid:1.2.840.114350.1.13.0.1.7.3.698084.8",
                        "value": "26394"
                    },
                    "display": "Hospital Encounter"
                }
            },
            "search": {
                "mode": "match"
            }
        },
        {
            "link": [
                {
                    "relation": "self",
                    "url": "https://appmarket.epic.com/interconnect-amcurprd-oauth/api/FHIR/R4/Encounter/ejeJ1dD29jCjg9Dw93tyOUA3"
                }
            ],
            "fullUrl": "https://appmarket.epic.com/interconnect-amcurprd-oauth/api/FHIR/R4/Encounter/ejeJ1dD29jCjg9Dw93tyOUA3",
            "resource": {
                "resourceType": "Encounter",
                "id": "ejeJ1dD29jCjg9Dw93tyOUA3",
                "identifier": [
                    {
                        "use": "usual",
                        "system": "urn:oid:1.2.840.114350.1.13.0.1.7.3.698084.8",
                        "value": "26394"
                    }
                ],
                "status": "planned",
                "class": {
                    "system": "urn:oid:1.2.840.114350.1.72.1.7.7.10.696784.13260",
                    "code": "2",
                    "display": "Preadmission"
                },
                "type": [
                    {
                        "coding": [
                            {
                                "system": "urn:oid:1.2.840.114350.1.13.0.1.7.10.698084.10110",
                                "code": "108",
                                "display": "Surgery Admit"
                            }
                        ],
                        "text": "Surgery Admit"
                    },
                    {
                        "coding": [
                            {
                                "system": "urn:oid:1.2.840.114350.1.13.0.1.7.10.698084.30",
                                "code": "3",
                                "display": "Hospital Encounter"
                            }
                        ],
                        "text": "Hospital Encounter"
                    }
                ],
                "serviceType": {
                    "coding": [
                        {
                            "system": "urn:oid:1.2.840.114350.1.13.0.1.7.10.698084.18886",
                            "code": "124",
                            "display": "General Surgery"
                        }
                    ],
                    "text": "General Surgery"
                },
                "subject": {
                    "reference": "Patient/epb1m.0iTxBK3nygIAyG8gQ3",
                    "display": "Deer, Dorothy OpTime"
                },
                "participant": [
                    {
                        "type": [
                            {
                                "coding": [
                                    {
                                        "system": "http://hl7.org/fhir/v3/ParticipationType",
                                        "code": "ADM",
                                        "display": "admitter"
                                    }
                                ],
                                "text": "admitter"
                            }
                        ],
                        "individual": {
                            "reference": "Practitioner/eRgcOyrDHZihisGGw-jg1lA3",
                            "type": "Practitioner",
                            "display": "Physician Orthopaedics, MD"
                        }
                    },
                    {
                        "type": [
                            {
                                "coding": [
                                    {
                                        "system": "http://hl7.org/fhir/v3/ParticipationType",
                                        "code": "ATND",
                                        "display": "attender"
                                    }
                                ],
                                "text": "attender"
                            }
                        ],
                        "individual": {
                            "reference": "Practitioner/eRgcOyrDHZihisGGw-jg1lA3",
                            "type": "Practitioner",
                            "display": "Physician Orthopaedics, MD"
                        }
                    },
                    {
                        "extension": [
                            {
                                "valueCodeableConcept": {
                                    "coding": [
                                        {
                                            "system": "urn:oid:1.2.840.114350.1.13.0.1.7.4.698084.18832",
                                            "code": "27",
                                            "display": "Orthopaedic Surgery"
                                        }
                                    ],
                                    "text": "Orthopaedic Surgery"
                                },
                                "url": "http://open.epic.com/FHIR/StructureDefinition/extension/specialty"
                            }
                        ],
                        "type": [
                            {
                                "coding": [
                                    {
                                        "system": "urn:oid:1.2.840.114350.1.13.0.1.7.10.698084.18869",
                                        "code": "Surgeon",
                                        "display": "Surgeon"
                                    }
                                ],
                                "text": "Surgeon"
                            }
                        ],
                        "period": {
                            "start": "2024-07-19T16:28:04Z"
                        },
                        "individual": {
                            "reference": "Practitioner/eRgcOyrDHZihisGGw-jg1lA3",
                            "type": "Practitioner",
                            "display": "Physician Orthopaedics, MD"
                        }
                    }
                ],
                "period": {
                    "start": "2024-08-02T12:00:00Z",
                    "end": "2173-09-27T13:00:00Z"
                },
                "reasonCode": [
                    {
                        "coding": [
                            {
                                "system": "http://snomed.info/sct",
                                "code": "239872002",
                                "display": "Osteoarthritis of hip (disorder)"
                            }
                        ],
                        "text": "Primary osteoarthritis of right hip"
                    }
                ],
                "location": [
                    {
                        "location": {
                            "reference": "Location/eih1L3clnoL-Odea34LokKYlHPndLwGjYudOa4y6QHvk3",
                            "display": "EMH Main Operating Room"
                        }
                    },
                    {
                        "location": {
                            "reference": "Location/eih1L3clnoL-Odea34LokKYlHPndLwGjYudOa4y6QHvk3",
                            "display": "EMH Main Operating Room"
                        }
                    },
                    {
                        "location": {
                            "reference": "Location/eQSOrLdbVrMRc68KBcTBG4A3",
                            "display": "Epic Hospital System"
                        }
                    }
                ]
            },
            "search": {
                "mode": "match"
            }
        },
        {
            "link": [
                {
                    "relation": "self",
                    "url": "https://appmarket.epic.com/interconnect-amcurprd-oauth/api/FHIR/R4/Encounter/eJH233Udtfr6S9IcV9lGNig3"
                }
            ],
            "fullUrl": "https://appmarket.epic.com/interconnect-amcurprd-oauth/api/FHIR/R4/Encounter/eJH233Udtfr6S9IcV9lGNig3",
            "resource": {
                "resourceType": "Encounter",
                "id": "eJH233Udtfr6S9IcV9lGNig3",
                "extension": [
                    {
                        "valueBoolean": false,
                        "url": "http://open.epic.com/FHIR/StructureDefinition/extension/accidentrelated"
                    }
                ],
                "identifier": [
                    {
                        "use": "usual",
                        "system": "urn:oid:1.2.840.114350.1.13.0.1.7.3.698084.8",
                        "value": "26389"
                    }
                ],
                "status": "finished",
                "class": {
                    "system": "urn:oid:1.2.840.114350.1.72.1.7.7.10.696784.13260",
                    "code": "6",
                    "display": "Discharge"
                },
                "type": [
                    {
                        "coding": [
                            {
                                "system": "urn:oid:1.2.840.114350.1.13.0.1.7.10.698084.10110",
                                "code": "106",
                                "display": "Hospital Outpatient Surgery"
                            }
                        ],
                        "text": "Hospital Outpatient Surgery"
                    },
                    {
                        "coding": [
                            {
                                "system": "urn:oid:1.2.840.114350.1.13.0.1.7.10.698084.30",
                                "code": "3",
                                "display": "Hospital Encounter"
                            }
                        ],
                        "text": "Hospital Encounter"
                    },
                    {
                        "coding": [
                            {
                                "system": "urn:oid:1.2.840.114350.1.13.0.1.7.10.698084.18875",
                                "code": "3",
                                "display": "Elective"
                            }
                        ],
                        "text": "Elective"
                    }
                ],
                "serviceType": {
                    "coding": [
                        {
                            "system": "urn:oid:1.2.840.114350.1.13.0.1.7.10.698084.18886",
                            "code": "124",
                            "display": "General Surgery"
                        }
                    ],
                    "text": "General Surgery"
                },
                "subject": {
                    "reference": "Patient/epb1m.0iTxBK3nygIAyG8gQ3",
                    "display": "Deer, Dorothy OpTime"
                },
                "participant": [
                    {
                        "type": [
                            {
                                "coding": [
                                    {
                                        "system": "http://hl7.org/fhir/v3/ParticipationType",
                                        "code": "ADM",
                                        "display": "admitter"
                                    }
                                ],
                                "text": "admitter"
                            }
                        ],
                        "individual": {
                            "reference": "Practitioner/eRgcOyrDHZihisGGw-jg1lA3",
                            "type": "Practitioner",
                            "display": "Physician Orthopaedics, MD"
                        }
                    },
                    {
                        "type": [
                            {
                                "coding": [
                                    {
                                        "system": "http://hl7.org/fhir/v3/ParticipationType",
                                        "code": "ATND",
                                        "display": "attender"
                                    }
                                ],
                                "text": "attender"
                            }
                        ],
                        "period": {
                            "start": "2024-07-12T10:30:00Z",
                            "end": "2024-07-12T14:35:00Z"
                        },
                        "individual": {
                            "reference": "Practitioner/eRgcOyrDHZihisGGw-jg1lA3",
                            "type": "Practitioner",
                            "display": "Physician Orthopaedics, MD"
                        }
                    },
                    {
                        "extension": [
                            {
                                "valueCodeableConcept": {
                                    "coding": [
                                        {
                                            "system": "urn:oid:1.2.840.114350.1.13.0.1.7.4.698084.18832",
                                            "code": "27",
                                            "display": "Orthopaedic Surgery"
                                        }
                                    ],
                                    "text": "Orthopaedic Surgery"
                                },
                                "url": "http://open.epic.com/FHIR/StructureDefinition/extension/specialty"
                            }
                        ],
                        "type": [
                            {
                                "coding": [
                                    {
                                        "system": "urn:oid:1.2.840.114350.1.13.0.1.7.10.698084.18869",
                                        "code": "Surgeon",
                                        "display": "Surgeon"
                                    }
                                ],
                                "text": "Surgeon"
                            }
                        ],
                        "period": {
                            "start": "2024-07-12T15:42:53Z"
                        },
                        "individual": {
                            "reference": "Practitioner/eRgcOyrDHZihisGGw-jg1lA3",
                            "type": "Practitioner",
                            "display": "Physician Orthopaedics, MD"
                        }
                    },
                    {
                        "extension": [
                            {
                                "valueCodeableConcept": {
                                    "coding": [
                                        {
                                            "system": "urn:oid:1.2.840.114350.1.13.0.1.7.4.698084.18832",
                                            "code": "2",
                                            "display": "Anesthesiology"
                                        }
                                    ],
                                    "text": "Anesthesiology"
                                },
                                "url": "http://open.epic.com/FHIR/StructureDefinition/extension/specialty"
                            }
                        ],
                        "type": [
                            {
                                "coding": [
                                    {
                                        "system": "urn:oid:1.2.840.114350.1.13.0.1.7.10.698084.18869",
                                        "code": "Anesthesiolo",
                                        "display": "Anesthesiologist"
                                    }
                                ],
                                "text": "Anesthesiologist"
                            }
                        ],
                        "period": {
                            "start": "2024-07-12T17:09:00Z"
                        },
                        "individual": {
                            "reference": "Practitioner/enHmcmrIOygs4mq-t6soebQ3",
                            "type": "Practitioner",
                            "display": "Anesthesiologist Anesthesia, MD"
                        }
                    }
                ],
                "period": {
                    "start": "2024-07-12T10:30:00Z",
                    "end": "2024-07-12T14:35:00Z"
                },
                "reasonCode": [
                    {
                        "coding": [
                            {
                                "system": "http://snomed.info/sct",
                                "code": "57406009",
                                "display": "Carpal tunnel syndrome (disorder)"
                            }
                        ],
                        "text": "Carpal tunnel syndrome of left wrist"
                    }
                ],
                "account": [
                    {
                        "identifier": {
                            "system": "urn:oid:1.2.840.114350.1.13.0.1.7.2.726582",
                            "value": "2671"
                        },
                        "display": "DEER,DOROTHY OPTIME"
                    }
                ],
                "hospitalization": {
                    "extension": [
                        {
                            "valueDateTime": "2024-07-12T10:30:00Z",
                            "url": "http://open.epic.com/FHIR/StructureDefinition/extension/observation-datetime"
                        }
                    ],
                    "admitSource": {
                        "coding": [
                            {
                                "system": "urn:oid:1.2.840.114350.1.13.0.1.7.10.698084.10310",
                                "code": "2",
                                "display": "Physician or Clinic Office"
                            }
                        ],
                        "text": "Physician or Clinic Office"
                    },
                    "dischargeDisposition": {
                        "coding": [
                            {
                                "system": "urn:oid:1.2.840.114350.1.13.0.1.7.10.698084.18888",
                                "code": "1",
                                "display": "Home or Self Care"
                            }
                        ],
                        "text": "Home or Self Care"
                    }
                },
                "location": [
                    {
                        "location": {
                            "reference": "Location/eih1L3clnoL-Odea34LokKYlHPndLwGjYudOa4y6QHvk3",
                            "display": "EMH Main Operating Room"
                        },
                        "period": {
                            "start": "2024-07-12T10:30:00Z",
                            "end": "2024-07-12T14:35:00Z"
                        }
                    },
                    {
                        "location": {
                            "reference": "Location/eih1L3clnoL-Odea34LokKYlHPndLwGjYudOa4y6QHvk3",
                            "display": "EMH Main Operating Room"
                        }
                    },
                    {
                        "location": {
                            "reference": "Location/eQSOrLdbVrMRc68KBcTBG4A3",
                            "display": "Epic Hospital System"
                        }
                    },
                    {
                        "location": {
                            "reference": "Location/eJYEZQAKo1q4le2qxYHsFmg3",
                            "display": "OR"
                        },
                        "physicalType": {
                            "coding": [
                                {
                                    "system": "http://terminology.hl7.org/CodeSystem/location-physical-type",
                                    "code": "ro",
                                    "display": "Room"
                                }
                            ],
                            "text": "Room"
                        }
                    },
                    {
                        "location": {
                            "identifier": {
                                "system": "urn:oid:1.2.840.114350.1.13.0.1.7.2.666968",
                                "value": "1209"
                            },
                            "display": "-"
                        },
                        "physicalType": {
                            "coding": [
                                {
                                    "system": "http://terminology.hl7.org/CodeSystem/location-physical-type",
                                    "code": "bd",
                                    "display": "Bed"
                                }
                            ],
                            "text": "Bed"
                        }
                    }
                ]
            },
            "search": {
                "mode": "match"
            }
        },
        {
            "link": [
                {
                    "relation": "self",
                    "url": "https://appmarket.epic.com/interconnect-amcurprd-oauth/api/FHIR/R4/Encounter/epJCreJrxY2k9dA01TcgA.Q3"
                }
            ],
            "fullUrl": "https://appmarket.epic.com/interconnect-amcurprd-oauth/api/FHIR/R4/Encounter/epJCreJrxY2k9dA01TcgA.Q3",
            "resource": {
                "resourceType": "Encounter",
                "id": "epJCreJrxY2k9dA01TcgA.Q3",
                "identifier": [
                    {
                        "use": "usual",
                        "system": "urn:oid:1.2.840.114350.1.13.0.1.7.3.698084.8",
                        "value": "26387"
                    }
                ],
                "status": "unknown",
                "class": {
                    "system": "urn:oid:1.2.840.114350.1.72.1.7.7.10.696784.13260",
                    "code": "10",
                    "display": "Surgery Log"
                },
                "type": [
                    {
                        "coding": [
                            {
                                "system": "urn:oid:1.2.840.114350.1.13.0.1.7.10.698084.30",
                                "code": "51",
                                "display": "Surgery"
                            }
                        ],
                        "text": "Surgery"
                    }
                ],
                "subject": {
                    "reference": "Patient/epb1m.0iTxBK3nygIAyG8gQ3",
                    "display": "Deer, Dorothy OpTime"
                },
                "participant": [
                    {
                        "individual": {
                            "reference": "Practitioner/eFDLlPwY9Zi.6EHce8wkRmA3",
                            "type": "Practitioner",
                            "display": "Outpatient Physician Family Medicine, MD"
                        }
                    }
                ],
                "period": {
                    "start": "2024-07-12T12:00:00Z",
                    "end": "2024-07-12T14:15:00Z"
                },
                "location": [
                    {
                        "location": {
                            "reference": "Location/efR3SIdpRKF9BFBM5qakt9F5X1mWxjiAGu2hNTKbqOdI3",
                            "display": "EMH Operating Room"
                        }
                    }
                ],
                "partOf": {
                    "reference": "Encounter/eJH233Udtfr6S9IcV9lGNig3",
                    "identifier": {
                        "use": "usual",
                        "system": "urn:oid:1.2.840.114350.1.13.0.1.7.3.698084.8",
                        "value": "26389"
                    },
                    "display": "Hospital Encounter"
                }
            },
            "search": {
                "mode": "match"
            }
        },
        {
            "link": [
                {
                    "relation": "self",
                    "url": "https://appmarket.epic.com/interconnect-amcurprd-oauth/api/FHIR/R4/Encounter/eJH233Udtfr6S9IcV9lGNig3"
                }
            ],
            "fullUrl": "https://appmarket.epic.com/interconnect-amcurprd-oauth/api/FHIR/R4/Encounter/eJH233Udtfr6S9IcV9lGNig3",
            "resource": {
                "resourceType": "Encounter",
                "id": "eJH233Udtfr6S9IcV9lGNig3",
                "extension": [
                    {
                        "valueBoolean": false,
                        "url": "http://open.epic.com/FHIR/StructureDefinition/extension/accidentrelated"
                    }
                ],
                "identifier": [
                    {
                        "use": "usual",
                        "system": "urn:oid:1.2.840.114350.1.13.0.1.7.3.698084.8",
                        "value": "26389"
                    }
                ],
                "status": "finished",
                "class": {
                    "system": "urn:oid:1.2.840.114350.1.72.1.7.7.10.696784.13260",
                    "code": "6",
                    "display": "Discharge"
                },
                "type": [
                    {
                        "coding": [
                            {
                                "system": "urn:oid:1.2.840.114350.1.13.0.1.7.10.698084.10110",
                                "code": "106",
                                "display": "Hospital Outpatient Surgery"
                            }
                        ],
                        "text": "Hospital Outpatient Surgery"
                    },
                    {
                        "coding": [
                            {
                                "system": "urn:oid:1.2.840.114350.1.13.0.1.7.10.698084.30",
                                "code": "3",
                                "display": "Hospital Encounter"
                            }
                        ],
                        "text": "Hospital Encounter"
                    },
                    {
                        "coding": [
                            {
                                "system": "urn:oid:1.2.840.114350.1.13.0.1.7.10.698084.18875",
                                "code": "3",
                                "display": "Elective"
                            }
                        ],
                        "text": "Elective"
                    }
                ],
                "serviceType": {
                    "coding": [
                        {
                            "system": "urn:oid:1.2.840.114350.1.13.0.1.7.10.698084.18886",
                            "code": "124",
                            "display": "General Surgery"
                        }
                    ],
                    "text": "General Surgery"
                },
                "subject": {
                    "reference": "Patient/epb1m.0iTxBK3nygIAyG8gQ3",
                    "display": "Deer, Dorothy OpTime"
                },
                "participant": [
                    {
                        "type": [
                            {
                                "coding": [
                                    {
                                        "system": "http://hl7.org/fhir/v3/ParticipationType",
                                        "code": "ADM",
                                        "display": "admitter"
                                    }
                                ],
                                "text": "admitter"
                            }
                        ],
                        "individual": {
                            "reference": "Practitioner/eRgcOyrDHZihisGGw-jg1lA3",
                            "type": "Practitioner",
                            "display": "Physician Orthopaedics, MD"
                        }
                    },
                    {
                        "type": [
                            {
                                "coding": [
                                    {
                                        "system": "http://hl7.org/fhir/v3/ParticipationType",
                                        "code": "ATND",
                                        "display": "attender"
                                    }
                                ],
                                "text": "attender"
                            }
                        ],
                        "period": {
                            "start": "2024-07-12T10:30:00Z",
                            "end": "2024-07-12T14:35:00Z"
                        },
                        "individual": {
                            "reference": "Practitioner/eRgcOyrDHZihisGGw-jg1lA3",
                            "type": "Practitioner",
                            "display": "Physician Orthopaedics, MD"
                        }
                    },
                    {
                        "extension": [
                            {
                                "valueCodeableConcept": {
                                    "coding": [
                                        {
                                            "system": "urn:oid:1.2.840.114350.1.13.0.1.7.4.698084.18832",
                                            "code": "27",
                                            "display": "Orthopaedic Surgery"
                                        }
                                    ],
                                    "text": "Orthopaedic Surgery"
                                },
                                "url": "http://open.epic.com/FHIR/StructureDefinition/extension/specialty"
                            }
                        ],
                        "type": [
                            {
                                "coding": [
                                    {
                                        "system": "urn:oid:1.2.840.114350.1.13.0.1.7.10.698084.18869",
                                        "code": "Surgeon",
                                        "display": "Surgeon"
                                    }
                                ],
                                "text": "Surgeon"
                            }
                        ],
                        "period": {
                            "start": "2024-07-12T15:42:53Z"
                        },
                        "individual": {
                            "reference": "Practitioner/eRgcOyrDHZihisGGw-jg1lA3",
                            "type": "Practitioner",
                            "display": "Physician Orthopaedics, MD"
                        }
                    },
                    {
                        "extension": [
                            {
                                "valueCodeableConcept": {
                                    "coding": [
                                        {
                                            "system": "urn:oid:1.2.840.114350.1.13.0.1.7.4.698084.18832",
                                            "code": "2",
                                            "display": "Anesthesiology"
                                        }
                                    ],
                                    "text": "Anesthesiology"
                                },
                                "url": "http://open.epic.com/FHIR/StructureDefinition/extension/specialty"
                            }
                        ],
                        "type": [
                            {
                                "coding": [
                                    {
                                        "system": "urn:oid:1.2.840.114350.1.13.0.1.7.10.698084.18869",
                                        "code": "Anesthesiolo",
                                        "display": "Anesthesiologist"
                                    }
                                ],
                                "text": "Anesthesiologist"
                            }
                        ],
                        "period": {
                            "start": "2024-07-12T17:09:00Z"
                        },
                        "individual": {
                            "reference": "Practitioner/enHmcmrIOygs4mq-t6soebQ3",
                            "type": "Practitioner",
                            "display": "Anesthesiologist Anesthesia, MD"
                        }
                    }
                ],
                "period": {
                    "start": "2024-07-12T10:30:00Z",
                    "end": "2024-07-12T14:35:00Z"
                },
                "reasonCode": [
                    {
                        "coding": [
                            {
                                "system": "http://snomed.info/sct",
                                "code": "57406009",
                                "display": "Carpal tunnel syndrome (disorder)"
                            }
                        ],
                        "text": "Carpal tunnel syndrome of left wrist"
                    }
                ],
                "account": [
                    {
                        "identifier": {
                            "system": "urn:oid:1.2.840.114350.1.13.0.1.7.2.726582",
                            "value": "2671"
                        },
                        "display": "DEER,DOROTHY OPTIME"
                    }
                ],
                "hospitalization": {
                    "extension": [
                        {
                            "valueDateTime": "2024-07-12T10:30:00Z",
                            "url": "http://open.epic.com/FHIR/StructureDefinition/extension/observation-datetime"
                        }
                    ],
                    "admitSource": {
                        "coding": [
                            {
                                "system": "urn:oid:1.2.840.114350.1.13.0.1.7.10.698084.10310",
                                "code": "2",
                                "display": "Physician or Clinic Office"
                            }
                        ],
                        "text": "Physician or Clinic Office"
                    },
                    "dischargeDisposition": {
                        "coding": [
                            {
                                "system": "urn:oid:1.2.840.114350.1.13.0.1.7.10.698084.18888",
                                "code": "1",
                                "display": "Home or Self Care"
                            }
                        ],
                        "text": "Home or Self Care"
                    }
                },
                "location": [
                    {
                        "location": {
                            "reference": "Location/eih1L3clnoL-Odea34LokKYlHPndLwGjYudOa4y6QHvk3",
                            "display": "EMH Main Operating Room"
                        },
                        "period": {
                            "start": "2024-07-12T10:30:00Z",
                            "end": "2024-07-12T14:35:00Z"
                        }
                    },
                    {
                        "location": {
                            "reference": "Location/eih1L3clnoL-Odea34LokKYlHPndLwGjYudOa4y6QHvk3",
                            "display": "EMH Main Operating Room"
                        }
                    },
                    {
                        "location": {
                            "reference": "Location/eQSOrLdbVrMRc68KBcTBG4A3",
                            "display": "Epic Hospital System"
                        }
                    },
                    {
                        "location": {
                            "reference": "Location/eJYEZQAKo1q4le2qxYHsFmg3",
                            "display": "OR"
                        },
                        "physicalType": {
                            "coding": [
                                {
                                    "system": "http://terminology.hl7.org/CodeSystem/location-physical-type",
                                    "code": "ro",
                                    "display": "Room"
                                }
                            ],
                            "text": "Room"
                        }
                    },
                    {
                        "location": {
                            "identifier": {
                                "system": "urn:oid:1.2.840.114350.1.13.0.1.7.2.666968",
                                "value": "1209"
                            },
                            "display": "-"
                        },
                        "physicalType": {
                            "coding": [
                                {
                                    "system": "http://terminology.hl7.org/CodeSystem/location-physical-type",
                                    "code": "bd",
                                    "display": "Bed"
                                }
                            ],
                            "text": "Bed"
                        }
                    }
                ]
            },
            "search": {
                "mode": "include"
            }
        },
        {
            "link": [
                {
                    "relation": "self",
                    "url": "https://appmarket.epic.com/interconnect-amcurprd-oauth/api/FHIR/R4/Encounter/ejeJ1dD29jCjg9Dw93tyOUA3"
                }
            ],
            "fullUrl": "https://appmarket.epic.com/interconnect-amcurprd-oauth/api/FHIR/R4/Encounter/ejeJ1dD29jCjg9Dw93tyOUA3",
            "resource": {
                "resourceType": "Encounter",
                "id": "ejeJ1dD29jCjg9Dw93tyOUA3",
                "identifier": [
                    {
                        "use": "usual",
                        "system": "urn:oid:1.2.840.114350.1.13.0.1.7.3.698084.8",
                        "value": "26394"
                    }
                ],
                "status": "planned",
                "class": {
                    "system": "urn:oid:1.2.840.114350.1.72.1.7.7.10.696784.13260",
                    "code": "2",
                    "display": "Preadmission"
                },
                "type": [
                    {
                        "coding": [
                            {
                                "system": "urn:oid:1.2.840.114350.1.13.0.1.7.10.698084.10110",
                                "code": "108",
                                "display": "Surgery Admit"
                            }
                        ],
                        "text": "Surgery Admit"
                    },
                    {
                        "coding": [
                            {
                                "system": "urn:oid:1.2.840.114350.1.13.0.1.7.10.698084.30",
                                "code": "3",
                                "display": "Hospital Encounter"
                            }
                        ],
                        "text": "Hospital Encounter"
                    }
                ],
                "serviceType": {
                    "coding": [
                        {
                            "system": "urn:oid:1.2.840.114350.1.13.0.1.7.10.698084.18886",
                            "code": "124",
                            "display": "General Surgery"
                        }
                    ],
                    "text": "General Surgery"
                },
                "subject": {
                    "reference": "Patient/epb1m.0iTxBK3nygIAyG8gQ3",
                    "display": "Deer, Dorothy OpTime"
                },
                "participant": [
                    {
                        "type": [
                            {
                                "coding": [
                                    {
                                        "system": "http://hl7.org/fhir/v3/ParticipationType",
                                        "code": "ADM",
                                        "display": "admitter"
                                    }
                                ],
                                "text": "admitter"
                            }
                        ],
                        "individual": {
                            "reference": "Practitioner/eRgcOyrDHZihisGGw-jg1lA3",
                            "type": "Practitioner",
                            "display": "Physician Orthopaedics, MD"
                        }
                    },
                    {
                        "type": [
                            {
                                "coding": [
                                    {
                                        "system": "http://hl7.org/fhir/v3/ParticipationType",
                                        "code": "ATND",
                                        "display": "attender"
                                    }
                                ],
                                "text": "attender"
                            }
                        ],
                        "individual": {
                            "reference": "Practitioner/eRgcOyrDHZihisGGw-jg1lA3",
                            "type": "Practitioner",
                            "display": "Physician Orthopaedics, MD"
                        }
                    },
                    {
                        "extension": [
                            {
                                "valueCodeableConcept": {
                                    "coding": [
                                        {
                                            "system": "urn:oid:1.2.840.114350.1.13.0.1.7.4.698084.18832",
                                            "code": "27",
                                            "display": "Orthopaedic Surgery"
                                        }
                                    ],
                                    "text": "Orthopaedic Surgery"
                                },
                                "url": "http://open.epic.com/FHIR/StructureDefinition/extension/specialty"
                            }
                        ],
                        "type": [
                            {
                                "coding": [
                                    {
                                        "system": "urn:oid:1.2.840.114350.1.13.0.1.7.10.698084.18869",
                                        "code": "Surgeon",
                                        "display": "Surgeon"
                                    }
                                ],
                                "text": "Surgeon"
                            }
                        ],
                        "period": {
                            "start": "2024-07-19T16:28:04Z"
                        },
                        "individual": {
                            "reference": "Practitioner/eRgcOyrDHZihisGGw-jg1lA3",
                            "type": "Practitioner",
                            "display": "Physician Orthopaedics, MD"
                        }
                    }
                ],
                "period": {
                    "start": "2024-08-02T12:00:00Z",
                    "end": "2173-09-27T13:00:00Z"
                },
                "reasonCode": [
                    {
                        "coding": [
                            {
                                "system": "http://snomed.info/sct",
                                "code": "239872002",
                                "display": "Osteoarthritis of hip (disorder)"
                            }
                        ],
                        "text": "Primary osteoarthritis of right hip"
                    }
                ],
                "location": [
                    {
                        "location": {
                            "reference": "Location/eih1L3clnoL-Odea34LokKYlHPndLwGjYudOa4y6QHvk3",
                            "display": "EMH Main Operating Room"
                        }
                    },
                    {
                        "location": {
                            "reference": "Location/eih1L3clnoL-Odea34LokKYlHPndLwGjYudOa4y6QHvk3",
                            "display": "EMH Main Operating Room"
                        }
                    },
                    {
                        "location": {
                            "reference": "Location/eQSOrLdbVrMRc68KBcTBG4A3",
                            "display": "Epic Hospital System"
                        }
                    }
                ]
            },
            "search": {
                "mode": "include"
            }
        },
        {
            "link": [
                {
                    "relation": "self",
                    "url": "https://appmarket.epic.com/interconnect-amcurprd-oauth/api/FHIR/R4/Patient/epb1m.0iTxBK3nygIAyG8gQ3"
                }
            ],
            "fullUrl": "https://appmarket.epic.com/interconnect-amcurprd-oauth/api/FHIR/R4/Patient/epb1m.0iTxBK3nygIAyG8gQ3",
            "resource": {
                "resourceType": "Patient",
                "id": "epb1m.0iTxBK3nygIAyG8gQ3",
                "extension": [
                    {
                        "extension": [
                            {
                                "valueCoding": {
                                    "system": "http://terminology.hl7.org/CodeSystem/v3-NullFlavor",
                                    "code": "UNK",
                                    "display": "Unknown"
                                },
                                "url": "ombCategory"
                            },
                            {
                                "valueString": "Unknown",
                                "url": "text"
                            }
                        ],
                        "url": "http://hl7.org/fhir/us/core/StructureDefinition/us-core-race"
                    },
                    {
                        "extension": [
                            {
                                "valueCoding": {
                                    "system": "urn:oid:2.16.840.1.113883.6.238",
                                    "code": "2186-5",
                                    "display": "Not Hispanic or Latino"
                                },
                                "url": "ombCategory"
                            },
                            {
                                "valueString": "Not Hispanic or Latino",
                                "url": "text"
                            }
                        ],
                        "url": "http://hl7.org/fhir/us/core/StructureDefinition/us-core-ethnicity"
                    },
                    {
                        "valueCodeableConcept": {
                            "coding": [
                                {
                                    "system": "urn:oid:1.2.840.114350.1.13.0.1.7.10.698084.130.657370.19999000",
                                    "code": "female",
                                    "display": "female"
                                }
                            ]
                        },
                        "url": "http://open.epic.com/FHIR/StructureDefinition/extension/legal-sex"
                    },
                    {
                        "valueCodeableConcept": {
                            "coding": [
                                {
                                    "system": "urn:oid:1.2.840.114350.1.13.0.1.7.10.698084.130.657370.19999000",
                                    "code": "female",
                                    "display": "female"
                                }
                            ]
                        },
                        "url": "http://open.epic.com/FHIR/StructureDefinition/extension/sex-for-clinical-use"
                    },
                    {
                        "valueCode": "F",
                        "url": "http://hl7.org/fhir/us/core/StructureDefinition/us-core-birthsex"
                    }
                ],
                "identifier": [
                    {
                        "use": "usual",
                        "system": "urn:oid:2.16.840.1.113883.4.1",
                        "value": "530-49-5871"
                    },
                    {
                        "use": "usual",
                        "type": {
                            "text": "CEID"
                        },
                        "system": "urn:epic:apporchard.curprod",
                        "value": "AO1HGNS8K3B7MXB"
                    },
                    {
                        "use": "usual",
                        "type": {
                            "text": "EPIC"
                        },
                        "system": "urn:oid:1.2.840.114350.1.1",
                        "value": "E7298"
                    },
                    {
                        "use": "usual",
                        "type": {
                            "text": "EXTERNAL"
                        },
                        "system": "urn:oid:1.2.840.114350.1.13.0.1.7.2.698084",
                        "value": "Z6012"
                    },
                    {
                        "use": "usual",
                        "type": {
                            "text": "FHIR"
                        },
                        "system": "http://open.epic.com/FHIR/StructureDefinition/patient-dstu2-fhir-id",
                        "value": "TBhplZ0J2WFR3j7x1Ueu7z2FfPM8DuDPtrEC5vU7MNoEB"
                    },
                    {
                        "use": "usual",
                        "type": {
                            "text": "FHIR STU3"
                        },
                        "system": "http://open.epic.com/FHIR/StructureDefinition/patient-fhir-id",
                        "value": "epb1m.0iTxBK3nygIAyG8gQ3"
                    },
                    {
                        "use": "usual",
                        "type": {
                            "text": "INTERNAL"
                        },
                        "system": "urn:oid:1.2.840.114350.1.13.0.1.7.2.698084",
                        "value": "     Z6012"
                    },
                    {
                        "use": "usual",
                        "type": {
                            "text": "MRN"
                        },
                        "system": "urn:oid:1.2.840.114350.1.13.0.1.7.5.737384.14",
                        "value": "206921"
                    },
                    {
                        "use": "usual",
                        "type": {
                            "text": "WPRINTERNAL"
                        },
                        "system": "urn:oid:1.2.840.114350.1.13.0.1.7.2.878082",
                        "value": "1004"
                    },
                    {
                        "use": "usual",
                        "system": "https://open.epic.com/FHIR/StructureDefinition/PayerMemberId",
                        "value": "675678889"
                    }
                ],
                "active": true,
                "name": [
                    {
                        "use": "official",
                        "text": "Dorothy OpTime Deer",
                        "family": "Deer",
                        "given": [
                            "Dorothy",
                            "OpTime"
                        ]
                    },
                    {
                        "use": "usual",
                        "text": "Dorothy OpTime Deer",
                        "family": "Deer",
                        "given": [
                            "Dorothy",
                            "OpTime"
                        ]
                    }
                ],
                "telecom": [
                    {
                        "system": "phone",
                        "value": "608-271-9000",
                        "use": "home"
                    },
                    {
                        "system": "email",
                        "value": "dorothy@dorothy.com"
                    }
                ],
                "gender": "female",
                "birthDate": "1954-04-04",
                "deceasedBoolean": false,
                "address": [
                    {
                        "use": "home",
                        "line": [
                            "1979 Milky Way"
                        ],
                        "city": "VERONA",
                        "district": "DANE",
                        "state": "WI",
                        "postalCode": "53593",
                        "country": "US"
                    }
                ],
                "maritalStatus": {
                    "text": "Married"
                },
                "contact": [
                    {
                        "relationship": [
                            {
                                "coding": [
                                    {
                                        "system": "http://terminology.hl7.org/CodeSystem/v2-0131",
                                        "code": "C",
                                        "display": "Emergency Contact"
                                    },
                                    {
                                        "system": "urn:oid:1.2.840.114350.1.13.0.1.7.4.827665.1000",
                                        "code": "17",
                                        "display": "Spouse"
                                    }
                                ],
                                "text": "Spouse"
                            }
                        ],
                        "name": {
                            "use": "usual",
                            "text": "Deer,Jonathan"
                        },
                        "telecom": [
                            {
                                "system": "phone",
                                "value": "608-271-9000",
                                "use": "home"
                            }
                        ],
                        "address": {
                            "use": "home",
                            "line": [
                                "1979 Milky Way"
                            ],
                            "city": "VERONA",
                            "district": "DANE",
                            "state": "WI",
                            "postalCode": "53593",
                            "country": "US"
                        }
                    },
                    {
                        "relationship": [
                            {
                                "coding": [
                                    {
                                        "system": "http://terminology.hl7.org/CodeSystem/v2-0131",
                                        "code": "E",
                                        "display": "Employer"
                                    }
                                ]
                            }
                        ],
                        "telecom": [
                            {
                                "system": "phone",
                                "value": "555-555-5555",
                                "use": "work"
                            }
                        ],
                        "address": {
                            "use": "work",
                            "line": [
                                "123 ANYWHERE STREET"
                            ],
                            "city": "VERONA",
                            "district": "DANE",
                            "state": "WI",
                            "postalCode": "53593",
                            "country": "US"
                        },
                        "organization": {
                            "display": "Ehs Employer"
                        }
                    }
                ],
                "communication": [
                    {
                        "language": {
                            "coding": [
                                {
                                    "system": "urn:ietf:bcp:47",
                                    "code": "en",
                                    "display": "English"
                                }
                            ],
                            "text": "English"
                        },
                        "preferred": true
                    }
                ],
                "managingOrganization": {
                    "reference": "Organization/enRyWnSP963FYDpoks4NHOA3",
                    "display": "Epic Hospital System"
                }
            },
            "search": {
                "mode": "include"
            }
        }
    ]
}