{
    "resourceType": "Bundle",
    "type": "searchset",
    "total": 10,
    "link": [
        {
            "relation": "self",
            "url": "https://appmarket.epic.com/interconnect-amcurprd-oauth/api/FHIR/R4/Encounter?_include=Encounter:condition&_include=Encounter:episodeOfCare&_include=Encounter:partOf&_include=Encounter:subject&_format=json&patient=eqoaex85TfhMTLyT6cofG5g3"
        }
    ],
    "entry": [
        {
            "link": [
                {
                    "relation": "self",
                    "url": "https://appmarket.epic.com/interconnect-amcurprd-oauth/api/FHIR/R4/Encounter/eewiMQqylwRGN40oQpborCg3"
                }
            ],
            "fullUrl": "https://appmarket.epic.com/interconnect-amcurprd-oauth/api/FHIR/R4/Encounter/eewiMQqylwRGN40oQpborCg3",
            "resource": {
                "resourceType": "Encounter",
                "id": "eewiMQqylwRGN40oQpborCg3",
                "identifier": [
                    {
                        "use": "usual",
                        "system": "urn:oid:1.2.840.114350.1.13.0.1.7.3.698084.8",
                        "value": "2077"
                    }
                ],
                "status": "finished",
                "class": {
                    "system": "urn:oid:1.2.840.114350.1.72.1.7.7.10.696784.13260",
                    "code": "10",
                    "display": "Surgery Log"
                },
                "type": [
                    {
                        "coding": [
                            {
                                "system": "urn:oid:1.2.840.114350.1.13.0.1.7.10.698084.30",
                                "code": "51",
                                "display": "Surgery"
                            }
                        ],
                        "text": "Surgery"
                    }
                ],
                "subject": {
                    "reference": "Patient/eqoaex85TfhMTLyT6cofG5g3",
                    "display": "Identity, Kate"
                },
                "participant": [
                    {
                        "individual": {
                            "reference": "Practitioner/eM5CWtq15N0WJeuCet5bJlQ3",
                            "type": "Practitioner",
                            "display": "Physician Family Medicine, MD"
                        }
                    }
                ],
                "period": {
                    "start": "2010-10-31T19:00:00Z",
                    "end": "2010-10-31T20:20:00Z"
                },
                "location": [
                    {
                        "location": {
                            "reference": "Location/efR3SIdpRKF9BFBM5qakt9F5X1mWxjiAGu2hNTKbqOdI3",
                            "display": "EMH Operating Room"
                        }
                    }
                ],
                "partOf": {
                    "reference": "Encounter/ebunEhsW8XFRlXKtQ5L2u7g3",
                    "identifier": {
                        "use": "usual",
                        "system": "urn:oid:1.2.840.114350.1.13.0.1.7.3.698084.8",
                        "value": "2079"
                    },
                    "display": "Hospital Encounter"
                }
            },
            "search": {
                "mode": "match"
            }
        },
        {
            "link": [
                {
                    "relation": "self",
                    "url": "https://appmarket.epic.com/interconnect-amcurprd-oauth/api/FHIR/R4/Encounter/ebunEhsW8XFRlXKtQ5L2u7g3"
                }
            ],
            "fullUrl": "https://appmarket.epic.com/interconnect-amcurprd-oauth/api/FHIR/R4/Encounter/ebunEhsW8XFRlXKtQ5L2u7g3",
            "resource": {
                "resourceType": "Encounter",
                "id": "ebunEhsW8XFRlXKtQ5L2u7g3",
                "identifier": [
                    {
                        "use": "usual",
                        "system": "urn:oid:1.2.840.114350.1.13.0.1.7.3.698084.8",
                        "value": "2079"
                    }
                ],
                "status": "finished",
                "class": {
                    "system": "urn:oid:1.2.840.114350.1.72.1.7.7.10.696784.13260",
                    "code": "6",
                    "display": "Discharge"
                },
                "type": [
                    {
                        "coding": [
                            {
                                "system": "urn:oid:1.2.840.114350.1.13.0.1.7.10.698084.10110",
                                "code": "108",
                                "display": "Surgery Admit"
                            }
                        ],
                        "text": "Surgery Admit"
                    },
                    {
                        "coding": [
                            {
                                "system": "urn:oid:1.2.840.114350.1.13.0.1.7.10.698084.30",
                                "code": "3",
                                "display": "Hospital Encounter"
                            }
                        ],
                        "text": "Hospital Encounter"
                    },
                    {
                        "coding": [
                            {
                                "system": "urn:oid:1.2.840.114350.1.13.0.1.7.10.698084.18875",
                                "code": "1",
                                "display": "Emergency"
                            }
                        ],
                        "text": "Emergency"
                    }
                ],
                "serviceType": {
                    "coding": [
                        {
                            "system": "urn:oid:1.2.840.114350.1.13.0.1.7.10.698084.18886",
                            "code": "105",
                            "display": "Emergency Medicine"
                        }
                    ],
                    "text": "Emergency Medicine"
                },
                "priority": {
                    "coding": [
                        {
                            "system": "urn:oid:1.2.840.114350.1.13.0.1.7.10.698084.410",
                            "code": "3",
                            "display": "Urgent"
                        }
                    ],
                    "text": "Urgent"
                },
                "subject": {
                    "reference": "Patient/eqoaex85TfhMTLyT6cofG5g3",
                    "display": "Identity, Kate"
                },
                "participant": [
                    {
                        "type": [
                            {
                                "coding": [
                                    {
                                        "system": "http://hl7.org/fhir/v3/ParticipationType",
                                        "code": "ADM",
                                        "display": "admitter"
                                    }
                                ],
                                "text": "admitter"
                            }
                        ],
                        "individual": {
                            "reference": "Practitioner/e9s-IdXQOUVywHOVoisd6xQ3",
                            "type": "Practitioner",
                            "display": "Attending Physician Inpatient, MD"
                        }
                    },
                    {
                        "type": [
                            {
                                "coding": [
                                    {
                                        "system": "http://hl7.org/fhir/v3/ParticipationType",
                                        "code": "ATND",
                                        "display": "attender"
                                    }
                                ],
                                "text": "attender"
                            }
                        ],
                        "period": {
                            "start": "2010-10-31T17:29:39Z",
                            "end": "2010-10-31T18:52:00Z"
                        },
                        "individual": {
                            "reference": "Practitioner/e8bM9BibcJ25SLe6lJi5i9Q3",
                            "type": "Practitioner",
                            "display": "Attending Physician Emergency, MD"
                        }
                    },
                    {
                        "type": [
                            {
                                "coding": [
                                    {
                                        "system": "http://hl7.org/fhir/v3/ParticipationType",
                                        "code": "ATND",
                                        "display": "attender"
                                    }
                                ],
                                "text": "attender"
                            }
                        ],
                        "period": {
                            "start": "2010-10-31T18:52:00Z",
                            "end": "2010-11-02T22:52:00Z"
                        },
                        "individual": {
                            "reference": "Practitioner/e9s-IdXQOUVywHOVoisd6xQ3",
                            "type": "Practitioner",
                            "display": "Attending Physician Inpatient, MD"
                        }
                    }
                ],
                "period": {
                    "start": "2010-10-31T17:27:37Z",
                    "end": "2010-11-02T22:52:00Z"
                },
                "reasonCode": [
                    {
                        "coding": [
                            {
                                "system": "urn:oid:1.2.840.114350.1.13.0.1.7.2.728286",
                                "code": "70",
                                "display": "Nausea"
                            }
                        ],
                        "text": "Nausea"
                    },
                    {
                        "coding": [
                            {
                                "system": "urn:oid:1.2.840.114350.1.13.0.1.7.2.728286",
                                "code": "110002",
                                "display": "Abdominal Pain"
                            }
                        ],
                        "text": "Abdominal Pain"
                    }
                ],
                "diagnosis": [
                    {
                        "condition": {
                            "reference": "Condition/el7chr5kq1V.YdlEtqzQmsA3",
                            "display": "Acute appendicitis"
                        }
                    }
                ],
                "account": [
                    {
                        "identifier": {
                            "system": "urn:oid:1.2.840.114350.1.13.0.1.7.2.726582",
                            "value": "101"
                        },
                        "display": "IDENTITY,KATE"
                    }
                ],
                "hospitalization": {
                    "extension": [
                        {
                            "valueDateTime": "2010-10-31T18:52:00Z",
                            "url": "http://open.epic.com/FHIR/StructureDefinition/extension/ip-admit-datetime"
                        }
                    ],
                    "admitSource": {
                        "coding": [
                            {
                                "system": "urn:oid:1.2.840.114350.1.13.0.1.7.10.698084.10310",
                                "code": "7",
                                "display": "Emergency Room"
                            }
                        ],
                        "text": "Emergency Room"
                    },
                    "dischargeDisposition": {
                        "coding": [
                            {
                                "system": "urn:oid:1.2.840.114350.1.13.0.1.7.10.698084.18888",
                                "code": "1",
                                "display": "Home or Self Care"
                            }
                        ],
                        "text": "Home or Self Care"
                    }
                },
                "location": [
                    {
                        "location": {
                            "reference": "Location/eweKBcq8ruM-1MzZAX-A-0uj2rDm4SMniPONiaM5VGQk3",
                            "display": "EMH Emergency"
                        },
                        "period": {
                            "start": "2010-10-31T17:27:00Z",
                            "end": "2010-10-31T18:52:00Z"
                        }
                    },
                    {
                        "location": {
                            "reference": "Location/eO-3e71xq6A5Xp7leBMrw5X-8sAl6UHIF91p7maQKFdU3",
                            "display": "EMH Medical Surgical"
                        },
                        "period": {
                            "start": "2010-10-31T18:52:00Z",
                            "end": "2010-11-02T22:52:00Z"
                        }
                    },
                    {
                        "location": {
                            "reference": "Location/eO-3e71xq6A5Xp7leBMrw5X-8sAl6UHIF91p7maQKFdU3",
                            "display": "EMH Medical Surgical"
                        }
                    },
                    {
                        "location": {
                            "reference": "Location/eQSOrLdbVrMRc68KBcTBG4A3",
                            "display": "Epic Hospital System"
                        }
                    },
                    {
                        "location": {
                            "reference": "Location/e3.YW4hLydOpJG8JIS.r-4A3",
                            "display": "123"
                        },
                        "physicalType": {
                            "coding": [
                                {
                                    "system": "http://terminology.hl7.org/CodeSystem/location-physical-type",
                                    "code": "ro",
                                    "display": "Room"
                                }
                            ],
                            "text": "Room"
                        }
                    },
                    {
                        "location": {
                            "identifier": {
                                "system": "urn:oid:1.2.840.114350.1.13.0.1.7.2.666968",
                                "value": "187"
                            },
                            "display": "123-02"
                        },
                        "physicalType": {
                            "coding": [
                                {
                                    "system": "http://terminology.hl7.org/CodeSystem/location-physical-type",
                                    "code": "bd",
                                    "display": "Bed"
                                }
                            ],
                            "text": "Bed"
                        }
                    }
                ]
            },
            "search": {
                "mode": "match"
            }
        },
        {
            "link": [
                {
                    "relation": "self",
                    "url": "https://appmarket.epic.com/interconnect-amcurprd-oauth/api/FHIR/R4/Encounter/eM8x3.bPTpLDK8zZSYtkbQg3"
                }
            ],
            "fullUrl": "https://appmarket.epic.com/interconnect-amcurprd-oauth/api/FHIR/R4/Encounter/eM8x3.bPTpLDK8zZSYtkbQg3",
            "resource": {
                "resourceType": "Encounter",
                "id": "eM8x3.bPTpLDK8zZSYtkbQg3",
                "identifier": [
                    {
                        "use": "usual",
                        "system": "urn:oid:1.2.840.114350.1.13.0.1.7.3.698084.8",
                        "value": "2084"
                    }
                ],
                "status": "unknown",
                "class": {
                    "system": "urn:oid:1.2.840.114350.1.72.1.7.7.10.696784.13260",
                    "code": "13",
                    "display": "Support OP Encounter"
                },
                "subject": {
                    "reference": "Patient/eqoaex85TfhMTLyT6cofG5g3",
                    "display": "Identity, Kate"
                },
                "period": {
                    "start": "2008-05-21",
                    "end": "2008-05-21"
                }
            },
            "search": {
                "mode": "match"
            }
        },
        {
            "link": [
                {
                    "relation": "self",
                    "url": "https://appmarket.epic.com/interconnect-amcurprd-oauth/api/FHIR/R4/Encounter/eoE4NSFNmfFagCmZThLqr8Q3"
                }
            ],
            "fullUrl": "https://appmarket.epic.com/interconnect-amcurprd-oauth/api/FHIR/R4/Encounter/eoE4NSFNmfFagCmZThLqr8Q3",
            "resource": {
                "resourceType": "Encounter",
                "id": "eoE4NSFNmfFagCmZThLqr8Q3",
                "identifier": [
                    {
                        "use": "usual",
                        "system": "urn:oid:1.2.840.114350.1.13.0.1.7.3.698084.8",
                        "value": "2085"
                    }
                ],
                "status": "unknown",
                "class": {
                    "system": "urn:oid:1.2.840.114350.1.72.1.7.7.10.696784.13260",
                    "code": "13",
                    "display": "Support OP Encounter"
                },
                "subject": {
                    "reference": "Patient/eqoaex85TfhMTLyT6cofG5g3",
                    "display": "Identity, Kate"
                },
                "period": {
                    "start": "2008-05-18",
                    "end": "2008-05-18"
                }
            },
            "search": {
                "mode": "match"
            }
        },
        {
            "link": [
                {
                    "relation": "self",
                    "url": "https://appmarket.epic.com/interconnect-amcurprd-oauth/api/FHIR/R4/Encounter/e7SgMpIj7n.nMLmLCQzMNvA3"
                }
            ],
            "fullUrl": "https://appmarket.epic.com/interconnect-amcurprd-oauth/api/FHIR/R4/Encounter/e7SgMpIj7n.nMLmLCQzMNvA3",
            "resource": {
                "resourceType": "Encounter",
                "id": "e7SgMpIj7n.nMLmLCQzMNvA3",
                "identifier": [
                    {
                        "use": "usual",
                        "system": "urn:oid:1.2.840.114350.1.13.0.1.7.3.698084.8",
                        "value": "2086"
                    }
                ],
                "status": "unknown",
                "class": {
                    "system": "urn:oid:1.2.840.114350.1.72.1.7.7.10.696784.13260",
                    "code": "13",
                    "display": "Support OP Encounter"
                },
                "subject": {
                    "reference": "Patient/eqoaex85TfhMTLyT6cofG5g3",
                    "display": "Identity, Kate"
                },
                "period": {
                    "start": "2008-05-18",
                    "end": "2008-05-18"
                }
            },
            "search": {
                "mode": "match"
            }
        },
        {
            "link": [
                {
                    "relation": "self",
                    "url": "https://appmarket.epic.com/interconnect-amcurprd-oauth/api/FHIR/R4/Encounter/eGdyUe7ZwaH1OFKWSwI7-tA3"
                }
            ],
            "fullUrl": "https://appmarket.epic.com/interconnect-amcurprd-oauth/api/FHIR/R4/Encounter/eGdyUe7ZwaH1OFKWSwI7-tA3",
            "resource": {
                "resourceType": "Encounter",
                "id": "eGdyUe7ZwaH1OFKWSwI7-tA3",
                "identifier": [
                    {
                        "use": "usual",
                        "system": "urn:oid:1.2.840.114350.1.13.0.1.7.3.698084.8",
                        "value": "2087"
                    }
                ],
                "status": "unknown",
                "class": {
                    "system": "urn:oid:1.2.840.114350.1.72.1.7.7.10.696784.13260",
                    "code": "13",
                    "display": "Support OP Encounter"
                },
                "subject": {
                    "reference": "Patient/eqoaex85TfhMTLyT6cofG5g3",
                    "display": "Identity, Kate"
                },
                "period": {
                    "start": "2008-05-18",
                    "end": "2008-05-18"
                }
            },
            "search": {
                "mode": "match"
            }
        },
        {
            "link": [
                {
                    "relation": "self",
                    "url": "https://appmarket.epic.com/interconnect-amcurprd-oauth/api/FHIR/R4/Encounter/egRbT6xdSoE0RKQs14ejMRw3"
                }
            ],
            "fullUrl": "https://appmarket.epic.com/interconnect-amcurprd-oauth/api/FHIR/R4/Encounter/egRbT6xdSoE0RKQs14ejMRw3",
            "resource": {
                "resourceType": "Encounter",
                "id": "egRbT6xdSoE0RKQs14ejMRw3",
                "identifier": [
                    {
                        "use": "usual",
                        "system": "urn:oid:1.2.840.114350.1.13.0.1.7.3.698084.8",
                        "value": "2088"
                    }
                ],
                "status": "unknown",
                "class": {
                    "system": "urn:oid:1.2.840.114350.1.72.1.7.7.10.696784.13260",
                    "code": "13",
                    "display": "Support OP Encounter"
                },
                "subject": {
                    "reference": "Patient/eqoaex85TfhMTLyT6cofG5g3",
                    "display": "Identity, Kate"
                },
                "period": {
                    "start": "2008-05-18",
                    "end": "2008-05-18"
                }
            },
            "search": {
                "mode": "match"
            }
        },
        {
            "link": [
                {
                    "relation": "self",
                    "url": "https://appmarket.epic.com/interconnect-amcurprd-oauth/api/FHIR/R4/Encounter/eBvorh0SYqRdAiWPX6Astrg3"
                }
            ],
            "fullUrl": "https://appmarket.epic.com/interconnect-amcurprd-oauth/api/FHIR/R4/Encounter/eBvorh0SYqRdAiWPX6Astrg3",
            "resource": {
                "resourceType": "Encounter",
                "id": "eBvorh0SYqRdAiWPX6Astrg3",
                "identifier": [
                    {
                        "use": "usual",
                        "system": "urn:oid:1.2.840.114350.1.13.0.1.7.3.698084.8",
                        "value": "2089"
                    }
                ],
                "status": "unknown",
                "class": {
                    "system": "urn:oid:1.2.840.114350.1.72.1.7.7.10.696784.13260",
                    "code": "13",
                    "display": "Support OP Encounter"
                },
                "subject": {
                    "reference": "Patient/eqoaex85TfhMTLyT6cofG5g3",
                    "display": "Identity, Kate"
                },
                "period": {
                    "start": "2008-05-18",
                    "end": "2008-05-18"
                }
            },
            "search": {
                "mode": "match"
            }
        },
        {
            "link": [
                {
                    "relation": "self",
                    "url": "https://appmarket.epic.com/interconnect-amcurprd-oauth/api/FHIR/R4/Encounter/e83XGxSWnCM1Vh-ElDoc8lQ3"
                }
            ],
            "fullUrl": "https://appmarket.epic.com/interconnect-amcurprd-oauth/api/FHIR/R4/Encounter/e83XGxSWnCM1Vh-ElDoc8lQ3",
            "resource": {
                "resourceType": "Encounter",
                "id": "e83XGxSWnCM1Vh-ElDoc8lQ3",
                "identifier": [
                    {
                        "use": "usual",
                        "system": "urn:oid:1.2.840.114350.1.13.0.1.7.3.698084.8",
                        "value": "2090"
                    }
                ],
                "status": "unknown",
                "class": {
                    "system": "urn:oid:1.2.840.114350.1.72.1.7.7.10.696784.13260",
                    "code": "13",
                    "display": "Support OP Encounter"
                },
                "subject": {
                    "reference": "Patient/eqoaex85TfhMTLyT6cofG5g3",
                    "display": "Identity, Kate"
                },
                "period": {
                    "start": "2008-05-18",
                    "end": "2008-05-18"
                }
            },
            "search": {
                "mode": "match"
            }
        },
        {
            "link": [
                {
                    "relation": "self",
                    "url": "https://appmarket.epic.com/interconnect-amcurprd-oauth/api/FHIR/R4/Encounter/emL5RiNRxe6YfMdds.nlZbQ3"
                }
            ],
            "fullUrl": "https://appmarket.epic.com/interconnect-amcurprd-oauth/api/FHIR/R4/Encounter/emL5RiNRxe6YfMdds.nlZbQ3",
            "resource": {
                "resourceType": "Encounter",
                "id": "emL5RiNRxe6YfMdds.nlZbQ3",
                "identifier": [
                    {
                        "use": "usual",
                        "system": "urn:oid:1.2.840.114350.1.13.0.1.7.3.698084.8",
                        "value": "2091"
                    }
                ],
                "status": "unknown",
                "class": {
                    "system": "urn:oid:1.2.840.114350.1.72.1.7.7.10.696784.13260",
                    "code": "13",
                    "display": "Support OP Encounter"
                },
                "subject": {
                    "reference": "Patient/eqoaex85TfhMTLyT6cofG5g3",
                    "display": "Identity, Kate"
                },
                "period": {
                    "start": "2008-05-18",
                    "end": "2008-05-18"
                }
            },
            "search": {
                "mode": "match"
            }
        },
        {
            "link": [
                {
                    "relation": "self",
                    "url": "https://appmarket.epic.com/interconnect-amcurprd-oauth/api/FHIR/R4/Encounter/ebunEhsW8XFRlXKtQ5L2u7g3"
                }
            ],
            "fullUrl": "https://appmarket.epic.com/interconnect-amcurprd-oauth/api/FHIR/R4/Encounter/ebunEhsW8XFRlXKtQ5L2u7g3",
            "resource": {
                "resourceType": "Encounter",
                "id": "ebunEhsW8XFRlXKtQ5L2u7g3",
                "identifier": [
                    {
                        "use": "usual",
                        "system": "urn:oid:1.2.840.114350.1.13.0.1.7.3.698084.8",
                        "value": "2079"
                    }
                ],
                "status": "finished",
                "class": {
                    "system": "urn:oid:1.2.840.114350.1.72.1.7.7.10.696784.13260",
                    "code": "6",
                    "display": "Discharge"
                },
                "type": [
                    {
                        "coding": [
                            {
                                "system": "urn:oid:1.2.840.114350.1.13.0.1.7.10.698084.10110",
                                "code": "108",
                                "display": "Surgery Admit"
                            }
                        ],
                        "text": "Surgery Admit"
                    },
                    {
                        "coding": [
                            {
                                "system": "urn:oid:1.2.840.114350.1.13.0.1.7.10.698084.30",
                                "code": "3",
                                "display": "Hospital Encounter"
                            }
                        ],
                        "text": "Hospital Encounter"
                    },
                    {
                        "coding": [
                            {
                                "system": "urn:oid:1.2.840.114350.1.13.0.1.7.10.698084.18875",
                                "code": "1",
                                "display": "Emergency"
                            }
                        ],
                        "text": "Emergency"
                    }
                ],
                "serviceType": {
                    "coding": [
                        {
                            "system": "urn:oid:1.2.840.114350.1.13.0.1.7.10.698084.18886",
                            "code": "105",
                            "display": "Emergency Medicine"
                        }
                    ],
                    "text": "Emergency Medicine"
                },
                "priority": {
                    "coding": [
                        {
                            "system": "urn:oid:1.2.840.114350.1.13.0.1.7.10.698084.410",
                            "code": "3",
                            "display": "Urgent"
                        }
                    ],
                    "text": "Urgent"
                },
                "subject": {
                    "reference": "Patient/eqoaex85TfhMTLyT6cofG5g3",
                    "display": "Identity, Kate"
                },
                "participant": [
                    {
                        "type": [
                            {
                                "coding": [
                                    {
                                        "system": "http://hl7.org/fhir/v3/ParticipationType",
                                        "code": "ADM",
                                        "display": "admitter"
                                    }
                                ],
                                "text": "admitter"
                            }
                        ],
                        "individual": {
                            "reference": "Practitioner/e9s-IdXQOUVywHOVoisd6xQ3",
                            "type": "Practitioner",
                            "display": "Attending Physician Inpatient, MD"
                        }
                    },
                    {
                        "type": [
                            {
                                "coding": [
                                    {
                                        "system": "http://hl7.org/fhir/v3/ParticipationType",
                                        "code": "ATND",
                                        "display": "attender"
                                    }
                                ],
                                "text": "attender"
                            }
                        ],
                        "period": {
                            "start": "2010-10-31T17:29:39Z",
                            "end": "2010-10-31T18:52:00Z"
                        },
                        "individual": {
                            "reference": "Practitioner/e8bM9BibcJ25SLe6lJi5i9Q3",
                            "type": "Practitioner",
                            "display": "Attending Physician Emergency, MD"
                        }
                    },
                    {
                        "type": [
                            {
                                "coding": [
                                    {
                                        "system": "http://hl7.org/fhir/v3/ParticipationType",
                                        "code": "ATND",
                                        "display": "attender"
                                    }
                                ],
                                "text": "attender"
                            }
                        ],
                        "period": {
                            "start": "2010-10-31T18:52:00Z",
                            "end": "2010-11-02T22:52:00Z"
                        },
                        "individual": {
                            "reference": "Practitioner/e9s-IdXQOUVywHOVoisd6xQ3",
                            "type": "Practitioner",
                            "display": "Attending Physician Inpatient, MD"
                        }
                    }
                ],
                "period": {
                    "start": "2010-10-31T17:27:37Z",
                    "end": "2010-11-02T22:52:00Z"
                },
                "reasonCode": [
                    {
                        "coding": [
                            {
                                "system": "urn:oid:1.2.840.114350.1.13.0.1.7.2.728286",
                                "code": "70",
                                "display": "Nausea"
                            }
                        ],
                        "text": "Nausea"
                    },
                    {
                        "coding": [
                            {
                                "system": "urn:oid:1.2.840.114350.1.13.0.1.7.2.728286",
                                "code": "110002",
                                "display": "Abdominal Pain"
                            }
                        ],
                        "text": "Abdominal Pain"
                    }
                ],
                "diagnosis": [
                    {
                        "condition": {
                            "reference": "Condition/el7chr5kq1V.YdlEtqzQmsA3",
                            "display": "Acute appendicitis"
                        }
                    }
                ],
                "account": [
                    {
                        "identifier": {
                            "system": "urn:oid:1.2.840.114350.1.13.0.1.7.2.726582",
                            "value": "101"
                        },
                        "display": "IDENTITY,KATE"
                    }
                ],
                "hospitalization": {
                    "extension": [
                        {
                            "valueDateTime": "2010-10-31T18:52:00Z",
                            "url": "http://open.epic.com/FHIR/StructureDefinition/extension/ip-admit-datetime"
                        }
                    ],
                    "admitSource": {
                        "coding": [
                            {
                                "system": "urn:oid:1.2.840.114350.1.13.0.1.7.10.698084.10310",
                                "code": "7",
                                "display": "Emergency Room"
                            }
                        ],
                        "text": "Emergency Room"
                    },
                    "dischargeDisposition": {
                        "coding": [
                            {
                                "system": "urn:oid:1.2.840.114350.1.13.0.1.7.10.698084.18888",
                                "code": "1",
                                "display": "Home or Self Care"
                            }
                        ],
                        "text": "Home or Self Care"
                    }
                },
                "location": [
                    {
                        "location": {
                            "reference": "Location/eweKBcq8ruM-1MzZAX-A-0uj2rDm4SMniPONiaM5VGQk3",
                            "display": "EMH Emergency"
                        },
                        "period": {
                            "start": "2010-10-31T17:27:00Z",
                            "end": "2010-10-31T18:52:00Z"
                        }
                    },
                    {
                        "location": {
                            "reference": "Location/eO-3e71xq6A5Xp7leBMrw5X-8sAl6UHIF91p7maQKFdU3",
                            "display": "EMH Medical Surgical"
                        },
                        "period": {
                            "start": "2010-10-31T18:52:00Z",
                            "end": "2010-11-02T22:52:00Z"
                        }
                    },
                    {
                        "location": {
                            "reference": "Location/eO-3e71xq6A5Xp7leBMrw5X-8sAl6UHIF91p7maQKFdU3",
                            "display": "EMH Medical Surgical"
                        }
                    },
                    {
                        "location": {
                            "reference": "Location/eQSOrLdbVrMRc68KBcTBG4A3",
                            "display": "Epic Hospital System"
                        }
                    },
                    {
                        "location": {
                            "reference": "Location/e3.YW4hLydOpJG8JIS.r-4A3",
                            "display": "123"
                        },
                        "physicalType": {
                            "coding": [
                                {
                                    "system": "http://terminology.hl7.org/CodeSystem/location-physical-type",
                                    "code": "ro",
                                    "display": "Room"
                                }
                            ],
                            "text": "Room"
                        }
                    },
                    {
                        "location": {
                            "identifier": {
                                "system": "urn:oid:1.2.840.114350.1.13.0.1.7.2.666968",
                                "value": "187"
                            },
                            "display": "123-02"
                        },
                        "physicalType": {
                            "coding": [
                                {
                                    "system": "http://terminology.hl7.org/CodeSystem/location-physical-type",
                                    "code": "bd",
                                    "display": "Bed"
                                }
                            ],
                            "text": "Bed"
                        }
                    }
                ]
            },
            "search": {
                "mode": "include"
            }
        },
        {
            "link": [
                {
                    "relation": "self",
                    "url": "https://appmarket.epic.com/interconnect-amcurprd-oauth/api/FHIR/R4/Condition/el7chr5kq1V.YdlEtqzQmsA3"
                }
            ],
            "fullUrl": "https://appmarket.epic.com/interconnect-amcurprd-oauth/api/FHIR/R4/Condition/el7chr5kq1V.YdlEtqzQmsA3",
            "resource": {
                "resourceType": "Condition",
                "id": "el7chr5kq1V.YdlEtqzQmsA3",
                "clinicalStatus": {
                    "coding": [
                        {
                            "system": "http://terminology.hl7.org/CodeSystem/condition-clinical",
                            "version": "4.0.0",
                            "code": "active",
                            "display": "Active"
                        }
                    ],
                    "text": "Active"
                },
                "verificationStatus": {
                    "coding": [
                        {
                            "system": "http://terminology.hl7.org/CodeSystem/condition-ver-status",
                            "version": "4.0.0",
                            "code": "confirmed",
                            "display": "Confirmed"
                        }
                    ],
                    "text": "Confirmed"
                },
                "category": [
                    {
                        "coding": [
                            {
                                "system": "http://terminology.hl7.org/CodeSystem/condition-category",
                                "code": "problem-list-item",
                                "display": "Problem List Item"
                            }
                        ],
                        "text": "Problem List Item"
                    }
                ],
                "code": {
                    "coding": [
                        {
                            "system": "http://hl7.org/fhir/sid/icd-10-cm",
                            "code": "K35.80"
                        },
                        {
                            "system": "http://snomed.info/sct",
                            "code": "85189001"
                        }
                    ],
                    "text": "Acute appendicitis"
                },
                "subject": {
                    "reference": "Patient/eqoaex85TfhMTLyT6cofG5g3",
                    "display": "Identity, Kate"
                },
                "onsetPeriod": {
                    "start": "2010-11-03",
                    "end": "2010-11-03"
                },
                "recordedDate": "2010-11-03"
            },
            "search": {
                "mode": "include"
            }
        },
        {
            "link": [
                {
                    "relation": "self",
                    "url": "https://appmarket.epic.com/interconnect-amcurprd-oauth/api/FHIR/R4/Patient/eqoaex85TfhMTLyT6cofG5g3"
                }
            ],
            "fullUrl": "https://appmarket.epic.com/interconnect-amcurprd-oauth/api/FHIR/R4/Patient/eqoaex85TfhMTLyT6cofG5g3",
            "resource": {
                "resourceType": "Patient",
                "id": "eqoaex85TfhMTLyT6cofG5g3",
                "extension": [
                    {
                        "extension": [
                            {
                                "valueCoding": {
                                    "system": "urn:oid:2.16.840.1.113883.6.238",
                                    "code": "2054-5",
                                    "display": "Black or African American"
                                },
                                "url": "ombCategory"
                            },
                            {
                                "valueString": "Black or African American",
                                "url": "text"
                            }
                        ],
                        "url": "http://hl7.org/fhir/us/core/StructureDefinition/us-core-race"
                    },
                    {
                        "extension": [
                            {
                                "valueCoding": {
                                    "system": "urn:oid:2.16.840.1.113883.6.238",
                                    "code": "2186-5",
                                    "display": "Not Hispanic or Latino"
                                },
                                "url": "ombCategory"
                            },
                            {
                                "valueString": "Not Hispanic or Latino",
                                "url": "text"
                            }
                        ],
                        "url": "http://hl7.org/fhir/us/core/StructureDefinition/us-core-ethnicity"
                    },
                    {
                        "valueCodeableConcept": {
                            "coding": [
                                {
                                    "system": "urn:oid:1.2.840.114350.1.13.0.1.7.10.698084.130.657370.19999000",
                                    "code": "female",
                                    "display": "female"
                                }
                            ]
                        },
                        "url": "http://open.epic.com/FHIR/StructureDefinition/extension/legal-sex"
                    },
                    {
                        "valueCodeableConcept": {
                            "coding": [
                                {
                                    "system": "urn:oid:1.2.840.114350.1.13.0.1.7.10.698084.130.657370.19999000",
                                    "code": "female",
                                    "display": "female"
                                }
                            ]
                        },
                        "url": "http://open.epic.com/FHIR/StructureDefinition/extension/sex-for-clinical-use"
                    },
                    {
                        "valueCode": "F",
                        "url": "http://hl7.org/fhir/us/core/StructureDefinition/us-core-birthsex"
                    }
                ],
                "identifier": [
                    {
                        "use": "usual",
                        "system": "urn:oid:2.16.840.1.113883.4.1",
                        "value": "826-53-8776"
                    },
                    {
                        "use": "usual",
                        "type": {
                            "text": "CEID"
                        },
                        "system": "urn:epic:apporchard.curprod",
                        "value": "AO1ZP6T9WFJFLSP"
                    },
                    {
                        "use": "usual",
                        "type": {
                            "text": "EPIC"
                        },
                        "system": "urn:oid:1.2.840.114350.1.1",
                        "value": "E1928"
                    },
                    {
                        "use": "usual",
                        "type": {
                            "text": "EXTERNAL"
                        },
                        "system": "urn:oid:1.2.840.114350.1.13.0.1.7.2.698084",
                        "value": "Z4586"
                    },
                    {
                        "use": "usual",
                        "type": {
                            "text": "FHIR"
                        },
                        "system": "http://open.epic.com/FHIR/StructureDefinition/patient-dstu2-fhir-id",
                        "value": "TDpByGIe0snWgVfVeFReFpMe-s3x7STCv-H.k7Gm8NqcB"
                    },
                    {
                        "use": "usual",
                        "type": {
                            "text": "FHIR STU3"
                        },
                        "system": "http://open.epic.com/FHIR/StructureDefinition/patient-fhir-id",
                        "value": "eqoaex85TfhMTLyT6cofG5g3"
                    },
                    {
                        "use": "usual",
                        "type": {
                            "text": "INTERNAL"
                        },
                        "system": "urn:oid:1.2.840.114350.1.13.0.1.7.2.698084",
                        "value": "     Z4586"
                    },
                    {
                        "use": "usual",
                        "type": {
                            "text": "MRN"
                        },
                        "system": "urn:oid:1.2.840.114350.1.13.0.1.7.5.737384.14",
                        "value": "201694"
                    }
                ],
                "active": true,
                "name": [
                    {
                        "use": "official",
                        "text": "Kate Identity",
                        "family": "Identity",
                        "given": [
                            "Kate"
                        ]
                    },
                    {
                        "use": "usual",
                        "text": "Kate Identity",
                        "family": "Identity",
                        "given": [
                            "Kate"
                        ]
                    }
                ],
                "telecom": [
                    {
                        "system": "phone",
                        "value": "608-546-9458",
                        "use": "home"
                    }
                ],
                "gender": "female",
                "birthDate": "1980-11-01",
                "deceasedBoolean": false,
                "address": [
                    {
                        "use": "home",
                        "line": [
                            "5217 Starflower Drive"
                        ],
                        "city": "MADISON",
                        "district": "DANE",
                        "state": "WI",
                        "postalCode": "53704",
                        "country": "US"
                    }
                ],
                "maritalStatus": {
                    "text": "Single"
                },
                "contact": [
                    {
                        "relationship": [
                            {
                                "coding": [
                                    {
                                        "system": "http://terminology.hl7.org/CodeSystem/v2-0131",
                                        "code": "C",
                                        "display": "Emergency Contact"
                                    },
                                    {
                                        "system": "http://terminology.hl7.org/CodeSystem/v2-0131",
                                        "code": "N",
                                        "display": "Next-of-Kin"
                                    },
                                    {
                                        "system": "urn:oid:1.2.840.114350.1.13.0.1.7.4.827665.1000",
                                        "code": "8",
                                        "display": "Mother"
                                    }
                                ],
                                "text": "Mother"
                            }
                        ],
                        "name": {
                            "use": "usual",
                            "text": "HIMtraining, Mother"
                        },
                        "telecom": [
                            {
                                "system": "phone",
                                "value": "608-546-9458",
                                "use": "home"
                            }
                        ],
                        "address": {
                            "use": "home",
                            "line": [
                                "5217 Starflower Drive"
                            ],
                            "city": "MADISON",
                            "state": "WI",
                            "postalCode": "53704",
                            "country": "US"
                        }
                    }
                ],
                "generalPractitioner": [
                    {
                        "reference": "Practitioner/eM5CWtq15N0WJeuCet5bJlQ3",
                        "type": "Practitioner",
                        "display": "Physician Family Medicine, MD"
                    }
                ],
                "managingOrganization": {
                    "reference": "Organization/enRyWnSP963FYDpoks4NHOA3",
                    "display": "Epic Hospital System"
                }
            },
            "search": {
                "mode": "include"
            }
        }
    ]
}