{
    "resourceType": "Bundle",
    "type": "searchset",
    "total": 10,
    "link": [
        {
            "relation": "self",
            "url": "https://appmarket.epic.com/interconnect-amcurprd-oauth/api/FHIR/R4/Encounter?_include=Encounter:condition&_include=Encounter:episodeOfCare&_include=Encounter:partOf&_include=Encounter:subject&_format=json&patient=eVB8bWXMV4uGaGrpMPNFUOw3"
        }
    ],
    "entry": [
        {
            "link": [
                {
                    "relation": "self",
                    "url": "https://appmarket.epic.com/interconnect-amcurprd-oauth/api/FHIR/R4/Encounter/e906zanmeTXoezlwJN88jUA3"
                }
            ],
            "fullUrl": "https://appmarket.epic.com/interconnect-amcurprd-oauth/api/FHIR/R4/Encounter/e906zanmeTXoezlwJN88jUA3",
            "resource": {
                "resourceType": "Encounter",
                "id": "e906zanmeTXoezlwJN88jUA3",
                "identifier": [
                    {
                        "use": "usual",
                        "system": "urn:oid:1.2.840.114350.1.13.0.1.7.3.698084.8",
                        "value": "6294"
                    }
                ],
                "status": "unknown",
                "class": {
                    "system": "urn:oid:1.2.840.114350.1.72.1.7.7.10.696784.13260",
                    "code": "10",
                    "display": "Surgery Log"
                },
                "type": [
                    {
                        "coding": [
                            {
                                "system": "urn:oid:1.2.840.114350.1.13.0.1.7.10.698084.30",
                                "code": "51",
                                "display": "Surgery"
                            }
                        ],
                        "text": "Surgery"
                    }
                ],
                "subject": {
                    "reference": "Patient/eVB8bWXMV4uGaGrpMPNFUOw3",
                    "display": "Obstetrics, Amy J"
                },
                "participant": [
                    {
                        "individual": {
                            "reference": "Practitioner/eM5CWtq15N0WJeuCet5bJlQ3",
                            "type": "Practitioner",
                            "display": "Physician Family Medicine, MD"
                        }
                    }
                ],
                "period": {
                    "start": "2013-11-15",
                    "end": "2013-11-15T07:15:00Z"
                },
                "location": [
                    {
                        "location": {
                            "reference": "Location/ejUYQRPGtz3vxe3M8nYCttnPcG64r9.6UJkiszxIi9zo3",
                            "display": "EMH Labor and Delivery"
                        }
                    }
                ],
                "partOf": {
                    "reference": "Encounter/e5g1JVXDnZLeIarsRLttWZg3",
                    "identifier": {
                        "use": "usual",
                        "system": "urn:oid:1.2.840.114350.1.13.0.1.7.3.698084.8",
                        "value": "6296"
                    },
                    "display": "Hospital Encounter"
                }
            },
            "search": {
                "mode": "match"
            }
        },
        {
            "link": [
                {
                    "relation": "self",
                    "url": "https://appmarket.epic.com/interconnect-amcurprd-oauth/api/FHIR/R4/Encounter/e5g1JVXDnZLeIarsRLttWZg3"
                }
            ],
            "fullUrl": "https://appmarket.epic.com/interconnect-amcurprd-oauth/api/FHIR/R4/Encounter/e5g1JVXDnZLeIarsRLttWZg3",
            "resource": {
                "resourceType": "Encounter",
                "id": "e5g1JVXDnZLeIarsRLttWZg3",
                "identifier": [
                    {
                        "use": "usual",
                        "system": "urn:oid:1.2.840.114350.1.13.0.1.7.3.698084.8",
                        "value": "6296"
                    }
                ],
                "status": "in-progress",
                "class": {
                    "system": "urn:oid:1.2.840.114350.1.72.1.7.7.10.696784.13260",
                    "code": "3",
                    "display": "Admission"
                },
                "type": [
                    {
                        "coding": [
                            {
                                "system": "urn:oid:1.2.840.114350.1.13.0.1.7.10.698084.10110",
                                "code": "104",
                                "display": "Observation"
                            }
                        ],
                        "text": "Observation"
                    },
                    {
                        "coding": [
                            {
                                "system": "urn:oid:1.2.840.114350.1.13.0.1.7.10.698084.30",
                                "code": "3",
                                "display": "Hospital Encounter"
                            }
                        ],
                        "text": "Hospital Encounter"
                    },
                    {
                        "coding": [
                            {
                                "system": "urn:oid:1.2.840.114350.1.13.0.1.7.10.698084.18875",
                                "code": "3",
                                "display": "Elective"
                            }
                        ],
                        "text": "Elective"
                    }
                ],
                "serviceType": {
                    "coding": [
                        {
                            "system": "urn:oid:1.2.840.114350.1.13.0.1.7.10.698084.18886",
                            "code": "117",
                            "display": "Obstetrics"
                        }
                    ],
                    "text": "Obstetrics"
                },
                "subject": {
                    "reference": "Patient/eVB8bWXMV4uGaGrpMPNFUOw3",
                    "display": "Obstetrics, Amy J"
                },
                "episodeOfCare": [
                    {
                        "reference": "EpisodeOfCare/eCnUKNNaAJNTybyErNVdRHw3",
                        "type": "EpisodeOfCare",
                        "display": "Pregnancy 1"
                    }
                ],
                "participant": [
                    {
                        "type": [
                            {
                                "coding": [
                                    {
                                        "system": "http://hl7.org/fhir/v3/ParticipationType",
                                        "code": "ADM",
                                        "display": "admitter"
                                    }
                                ],
                                "text": "admitter"
                            }
                        ],
                        "individual": {
                            "reference": "Practitioner/eHdBpsN5eOyFCM2cUPgGuTw3",
                            "type": "Practitioner",
                            "display": "Physician Obstetrics, MD"
                        }
                    },
                    {
                        "type": [
                            {
                                "coding": [
                                    {
                                        "system": "http://hl7.org/fhir/v3/ParticipationType",
                                        "code": "ATND",
                                        "display": "attender"
                                    }
                                ],
                                "text": "attender"
                            }
                        ],
                        "period": {
                            "start": "2013-04-17T21:28:35Z"
                        },
                        "individual": {
                            "reference": "Practitioner/eHdBpsN5eOyFCM2cUPgGuTw3",
                            "type": "Practitioner",
                            "display": "Physician Obstetrics, MD"
                        }
                    },
                    {
                        "extension": [
                            {
                                "valueCodeableConcept": {
                                    "coding": [
                                        {
                                            "system": "urn:oid:1.2.840.114350.1.13.0.1.7.4.698084.18832",
                                            "code": "22",
                                            "display": "Obstetrics and Gynecology"
                                        }
                                    ],
                                    "text": "Obstetrics and Gynecology"
                                },
                                "url": "http://open.epic.com/FHIR/StructureDefinition/extension/specialty"
                            }
                        ],
                        "type": [
                            {
                                "coding": [
                                    {
                                        "system": "urn:oid:1.2.840.114350.1.13.0.1.7.10.698084.18869",
                                        "code": "Surgeon",
                                        "display": "Surgeon"
                                    }
                                ],
                                "text": "Surgeon"
                            }
                        ],
                        "period": {
                            "start": "2013-11-15T09:44:20Z"
                        },
                        "individual": {
                            "reference": "Practitioner/eHdBpsN5eOyFCM2cUPgGuTw3",
                            "type": "Practitioner",
                            "display": "Physician Obstetrics, MD"
                        }
                    }
                ],
                "period": {
                    "start": "2013-04-17T21:28:35Z"
                },
                "reasonCode": [
                    {
                        "coding": [
                            {
                                "system": "urn:oid:1.2.840.114350.1.13.0.1.7.2.728286",
                                "code": "100563",
                                "display": "Contractions"
                            }
                        ],
                        "text": "Contractions"
                    }
                ],
                "account": [
                    {
                        "identifier": {
                            "system": "urn:oid:1.2.840.114350.1.13.0.1.7.2.726582",
                            "value": "583"
                        },
                        "display": "OBSTETRICS,AMY J"
                    }
                ],
                "hospitalization": {
                    "extension": [
                        {
                            "valueDateTime": "2013-04-17T21:28:35Z",
                            "url": "http://open.epic.com/FHIR/StructureDefinition/extension/observation-datetime"
                        }
                    ]
                },
                "location": [
                    {
                        "location": {
                            "reference": "Location/etk-blkZr.2.mHyBW6isfhjiMf0FMRauHE.XP765i1rY3",
                            "display": "EMH Labor and Delivery"
                        },
                        "period": {
                            "start": "2013-04-17T21:28:00Z",
                            "end": "2013-05-28T17:37:00Z"
                        }
                    },
                    {
                        "location": {
                            "reference": "Location/etk-blkZr.2.mHyBW6isfhjiMf0FMRauHE.XP765i1rY3",
                            "display": "EMH Labor and Delivery"
                        },
                        "period": {
                            "start": "2013-05-28T17:37:00Z"
                        }
                    },
                    {
                        "location": {
                            "reference": "Location/etk-blkZr.2.mHyBW6isfhjiMf0FMRauHE.XP765i1rY3",
                            "display": "EMH Labor and Delivery"
                        }
                    },
                    {
                        "location": {
                            "reference": "Location/eQSOrLdbVrMRc68KBcTBG4A3",
                            "display": "Epic Hospital System"
                        }
                    },
                    {
                        "location": {
                            "reference": "Location/eed2W0i5ZGrUYGO409QrynQ3",
                            "display": "L&D PACU"
                        },
                        "physicalType": {
                            "coding": [
                                {
                                    "system": "http://terminology.hl7.org/CodeSystem/location-physical-type",
                                    "code": "ro",
                                    "display": "Room"
                                }
                            ],
                            "text": "Room"
                        }
                    },
                    {
                        "location": {
                            "identifier": {
                                "system": "urn:oid:1.2.840.114350.1.13.0.1.7.2.666968",
                                "value": "829"
                            },
                            "display": "L&D - PACU 3"
                        },
                        "physicalType": {
                            "coding": [
                                {
                                    "system": "http://terminology.hl7.org/CodeSystem/location-physical-type",
                                    "code": "bd",
                                    "display": "Bed"
                                }
                            ],
                            "text": "Bed"
                        }
                    }
                ]
            },
            "search": {
                "mode": "match"
            }
        },
        {
            "link": [
                {
                    "relation": "self",
                    "url": "https://appmarket.epic.com/interconnect-amcurprd-oauth/api/FHIR/R4/Encounter/eiOVFq10gir9c7pJZ.5.MSw3"
                }
            ],
            "fullUrl": "https://appmarket.epic.com/interconnect-amcurprd-oauth/api/FHIR/R4/Encounter/eiOVFq10gir9c7pJZ.5.MSw3",
            "resource": {
                "resourceType": "Encounter",
                "id": "eiOVFq10gir9c7pJZ.5.MSw3",
                "identifier": [
                    {
                        "use": "usual",
                        "system": "urn:oid:1.2.840.114350.1.13.0.1.7.3.698084.8",
                        "value": "6297"
                    }
                ],
                "status": "finished",
                "class": {
                    "system": "urn:oid:1.2.840.114350.1.72.1.7.7.10.696784.13260",
                    "code": "13",
                    "display": "Support OP Encounter"
                },
                "type": [
                    {
                        "coding": [
                            {
                                "system": "urn:oid:1.2.840.114350.1.13.0.1.7.10.698084.30",
                                "code": "1200",
                                "display": "Routine Prenatal"
                            }
                        ],
                        "text": "Routine Prenatal"
                    }
                ],
                "subject": {
                    "reference": "Patient/eVB8bWXMV4uGaGrpMPNFUOw3",
                    "display": "Obstetrics, Amy J"
                },
                "episodeOfCare": [
                    {
                        "reference": "EpisodeOfCare/eCnUKNNaAJNTybyErNVdRHw3",
                        "type": "EpisodeOfCare",
                        "display": "Pregnancy 1"
                    }
                ],
                "participant": [
                    {
                        "type": [
                            {
                                "text": "losAuthorizingPhysician"
                            }
                        ],
                        "individual": {
                            "reference": "Practitioner/eHdBpsN5eOyFCM2cUPgGuTw3",
                            "type": "Practitioner",
                            "display": "Physician Obstetrics, MD"
                        }
                    }
                ],
                "period": {
                    "start": "2013-03-29",
                    "end": "2013-03-29"
                },
                "location": [
                    {
                        "location": {
                            "reference": "Location/eBDEYzYrPL0Gg9ikW76NBzgtwO-F2yBytQjo9cNTYfZ83",
                            "display": "EMC OBGYN Clinic"
                        }
                    }
                ]
            },
            "search": {
                "mode": "match"
            }
        },
        {
            "link": [
                {
                    "relation": "self",
                    "url": "https://appmarket.epic.com/interconnect-amcurprd-oauth/api/FHIR/R4/Encounter/ewHcXQ5CcF0VLxL7X7xs92Q3"
                }
            ],
            "fullUrl": "https://appmarket.epic.com/interconnect-amcurprd-oauth/api/FHIR/R4/Encounter/ewHcXQ5CcF0VLxL7X7xs92Q3",
            "resource": {
                "resourceType": "Encounter",
                "id": "ewHcXQ5CcF0VLxL7X7xs92Q3",
                "identifier": [
                    {
                        "use": "usual",
                        "system": "urn:oid:1.2.840.114350.1.13.0.1.7.3.698084.8",
                        "value": "6298"
                    }
                ],
                "status": "finished",
                "class": {
                    "system": "urn:oid:1.2.840.114350.1.72.1.7.7.10.696784.13260",
                    "code": "13",
                    "display": "Support OP Encounter"
                },
                "type": [
                    {
                        "coding": [
                            {
                                "system": "urn:oid:1.2.840.114350.1.13.0.1.7.10.698084.30",
                                "code": "1200",
                                "display": "Routine Prenatal"
                            }
                        ],
                        "text": "Routine Prenatal"
                    }
                ],
                "subject": {
                    "reference": "Patient/eVB8bWXMV4uGaGrpMPNFUOw3",
                    "display": "Obstetrics, Amy J"
                },
                "episodeOfCare": [
                    {
                        "reference": "EpisodeOfCare/eCnUKNNaAJNTybyErNVdRHw3",
                        "type": "EpisodeOfCare",
                        "display": "Pregnancy 1"
                    }
                ],
                "participant": [
                    {
                        "type": [
                            {
                                "text": "losAuthorizingPhysician"
                            }
                        ],
                        "individual": {
                            "reference": "Practitioner/eHdBpsN5eOyFCM2cUPgGuTw3",
                            "type": "Practitioner",
                            "display": "Physician Obstetrics, MD"
                        }
                    }
                ],
                "period": {
                    "start": "2013-03-02",
                    "end": "2013-03-02"
                },
                "location": [
                    {
                        "location": {
                            "reference": "Location/eBDEYzYrPL0Gg9ikW76NBzgtwO-F2yBytQjo9cNTYfZ83",
                            "display": "EMC OBGYN Clinic"
                        }
                    }
                ]
            },
            "search": {
                "mode": "match"
            }
        },
        {
            "link": [
                {
                    "relation": "self",
                    "url": "https://appmarket.epic.com/interconnect-amcurprd-oauth/api/FHIR/R4/Encounter/erSkdYq22ayRw3.YXIR5yiA3"
                }
            ],
            "fullUrl": "https://appmarket.epic.com/interconnect-amcurprd-oauth/api/FHIR/R4/Encounter/erSkdYq22ayRw3.YXIR5yiA3",
            "resource": {
                "resourceType": "Encounter",
                "id": "erSkdYq22ayRw3.YXIR5yiA3",
                "identifier": [
                    {
                        "use": "usual",
                        "system": "urn:oid:1.2.840.114350.1.13.0.1.7.3.698084.8",
                        "value": "6299"
                    }
                ],
                "status": "finished",
                "class": {
                    "system": "urn:oid:1.2.840.114350.1.72.1.7.7.10.696784.13260",
                    "code": "13",
                    "display": "Support OP Encounter"
                },
                "type": [
                    {
                        "coding": [
                            {
                                "system": "urn:oid:1.2.840.114350.1.13.0.1.7.10.698084.30",
                                "code": "1200",
                                "display": "Routine Prenatal"
                            }
                        ],
                        "text": "Routine Prenatal"
                    }
                ],
                "subject": {
                    "reference": "Patient/eVB8bWXMV4uGaGrpMPNFUOw3",
                    "display": "Obstetrics, Amy J"
                },
                "episodeOfCare": [
                    {
                        "reference": "EpisodeOfCare/eCnUKNNaAJNTybyErNVdRHw3",
                        "type": "EpisodeOfCare",
                        "display": "Pregnancy 1"
                    }
                ],
                "participant": [
                    {
                        "type": [
                            {
                                "text": "losAuthorizingPhysician"
                            }
                        ],
                        "individual": {
                            "reference": "Practitioner/eHdBpsN5eOyFCM2cUPgGuTw3",
                            "type": "Practitioner",
                            "display": "Physician Obstetrics, MD"
                        }
                    }
                ],
                "period": {
                    "start": "2013-01-31",
                    "end": "2013-01-31"
                },
                "location": [
                    {
                        "location": {
                            "reference": "Location/eBDEYzYrPL0Gg9ikW76NBzgtwO-F2yBytQjo9cNTYfZ83",
                            "display": "EMC OBGYN Clinic"
                        }
                    }
                ]
            },
            "search": {
                "mode": "match"
            }
        },
        {
            "link": [
                {
                    "relation": "self",
                    "url": "https://appmarket.epic.com/interconnect-amcurprd-oauth/api/FHIR/R4/Encounter/eIrCg0As-7iIURdjWgD041A3"
                }
            ],
            "fullUrl": "https://appmarket.epic.com/interconnect-amcurprd-oauth/api/FHIR/R4/Encounter/eIrCg0As-7iIURdjWgD041A3",
            "resource": {
                "resourceType": "Encounter",
                "id": "eIrCg0As-7iIURdjWgD041A3",
                "identifier": [
                    {
                        "use": "usual",
                        "system": "urn:oid:1.2.840.114350.1.13.0.1.7.3.698084.8",
                        "value": "6301"
                    }
                ],
                "status": "finished",
                "class": {
                    "system": "urn:oid:1.2.840.114350.1.72.1.7.7.10.696784.13260",
                    "code": "13",
                    "display": "Support OP Encounter"
                },
                "type": [
                    {
                        "coding": [
                            {
                                "system": "urn:oid:1.2.840.114350.1.13.0.1.7.10.698084.30",
                                "code": "1200",
                                "display": "Routine Prenatal"
                            }
                        ],
                        "text": "Routine Prenatal"
                    }
                ],
                "subject": {
                    "reference": "Patient/eVB8bWXMV4uGaGrpMPNFUOw3",
                    "display": "Obstetrics, Amy J"
                },
                "episodeOfCare": [
                    {
                        "reference": "EpisodeOfCare/eCnUKNNaAJNTybyErNVdRHw3",
                        "type": "EpisodeOfCare",
                        "display": "Pregnancy 1"
                    }
                ],
                "participant": [
                    {
                        "type": [
                            {
                                "text": "losAuthorizingPhysician"
                            }
                        ],
                        "individual": {
                            "reference": "Practitioner/eHdBpsN5eOyFCM2cUPgGuTw3",
                            "type": "Practitioner",
                            "display": "Physician Obstetrics, MD"
                        }
                    }
                ],
                "period": {
                    "start": "2013-01-01",
                    "end": "2013-01-01"
                },
                "location": [
                    {
                        "location": {
                            "reference": "Location/eBDEYzYrPL0Gg9ikW76NBzgtwO-F2yBytQjo9cNTYfZ83",
                            "display": "EMC OBGYN Clinic"
                        }
                    }
                ]
            },
            "search": {
                "mode": "match"
            }
        },
        {
            "link": [
                {
                    "relation": "self",
                    "url": "https://appmarket.epic.com/interconnect-amcurprd-oauth/api/FHIR/R4/Encounter/eVN41sVDc4KpG.t3UvwJjcw3"
                }
            ],
            "fullUrl": "https://appmarket.epic.com/interconnect-amcurprd-oauth/api/FHIR/R4/Encounter/eVN41sVDc4KpG.t3UvwJjcw3",
            "resource": {
                "resourceType": "Encounter",
                "id": "eVN41sVDc4KpG.t3UvwJjcw3",
                "identifier": [
                    {
                        "use": "usual",
                        "system": "urn:oid:1.2.840.114350.1.13.0.1.7.3.698084.8",
                        "value": "6302"
                    }
                ],
                "status": "finished",
                "class": {
                    "system": "urn:oid:1.2.840.114350.1.72.1.7.7.10.696784.13260",
                    "code": "13",
                    "display": "Support OP Encounter"
                },
                "type": [
                    {
                        "coding": [
                            {
                                "system": "urn:oid:1.2.840.114350.1.13.0.1.7.10.698084.30",
                                "code": "1200",
                                "display": "Routine Prenatal"
                            }
                        ],
                        "text": "Routine Prenatal"
                    }
                ],
                "subject": {
                    "reference": "Patient/eVB8bWXMV4uGaGrpMPNFUOw3",
                    "display": "Obstetrics, Amy J"
                },
                "episodeOfCare": [
                    {
                        "reference": "EpisodeOfCare/eCnUKNNaAJNTybyErNVdRHw3",
                        "type": "EpisodeOfCare",
                        "display": "Pregnancy 1"
                    }
                ],
                "participant": [
                    {
                        "type": [
                            {
                                "text": "losAuthorizingPhysician"
                            }
                        ],
                        "individual": {
                            "reference": "Practitioner/eHdBpsN5eOyFCM2cUPgGuTw3",
                            "type": "Practitioner",
                            "display": "Physician Obstetrics, MD"
                        }
                    }
                ],
                "period": {
                    "start": "2012-11-02",
                    "end": "2012-11-02"
                },
                "location": [
                    {
                        "location": {
                            "reference": "Location/eBDEYzYrPL0Gg9ikW76NBzgtwO-F2yBytQjo9cNTYfZ83",
                            "display": "EMC OBGYN Clinic"
                        }
                    }
                ]
            },
            "search": {
                "mode": "match"
            }
        },
        {
            "link": [
                {
                    "relation": "self",
                    "url": "https://appmarket.epic.com/interconnect-amcurprd-oauth/api/FHIR/R4/Encounter/eK7Ctr.QZlpcD5GOFUuoadw3"
                }
            ],
            "fullUrl": "https://appmarket.epic.com/interconnect-amcurprd-oauth/api/FHIR/R4/Encounter/eK7Ctr.QZlpcD5GOFUuoadw3",
            "resource": {
                "resourceType": "Encounter",
                "id": "eK7Ctr.QZlpcD5GOFUuoadw3",
                "identifier": [
                    {
                        "use": "usual",
                        "system": "urn:oid:1.2.840.114350.1.13.0.1.7.3.698084.8",
                        "value": "6303"
                    }
                ],
                "status": "finished",
                "class": {
                    "system": "urn:oid:1.2.840.114350.1.72.1.7.7.10.696784.13260",
                    "code": "13",
                    "display": "Support OP Encounter"
                },
                "type": [
                    {
                        "coding": [
                            {
                                "system": "urn:oid:1.2.840.114350.1.13.0.1.7.10.698084.30",
                                "code": "1200",
                                "display": "Routine Prenatal"
                            }
                        ],
                        "text": "Routine Prenatal"
                    }
                ],
                "subject": {
                    "reference": "Patient/eVB8bWXMV4uGaGrpMPNFUOw3",
                    "display": "Obstetrics, Amy J"
                },
                "episodeOfCare": [
                    {
                        "reference": "EpisodeOfCare/eCnUKNNaAJNTybyErNVdRHw3",
                        "type": "EpisodeOfCare",
                        "display": "Pregnancy 1"
                    }
                ],
                "participant": [
                    {
                        "type": [
                            {
                                "text": "losAuthorizingPhysician"
                            }
                        ],
                        "individual": {
                            "reference": "Practitioner/eHdBpsN5eOyFCM2cUPgGuTw3",
                            "type": "Practitioner",
                            "display": "Physician Obstetrics, MD"
                        }
                    }
                ],
                "period": {
                    "start": "2012-10-08",
                    "end": "2012-10-08"
                },
                "location": [
                    {
                        "location": {
                            "reference": "Location/eBDEYzYrPL0Gg9ikW76NBzgtwO-F2yBytQjo9cNTYfZ83",
                            "display": "EMC OBGYN Clinic"
                        }
                    }
                ]
            },
            "search": {
                "mode": "match"
            }
        },
        {
            "link": [
                {
                    "relation": "self",
                    "url": "https://appmarket.epic.com/interconnect-amcurprd-oauth/api/FHIR/R4/Encounter/eQWbDTtm.ifUoLPXOBC38mA3"
                }
            ],
            "fullUrl": "https://appmarket.epic.com/interconnect-amcurprd-oauth/api/FHIR/R4/Encounter/eQWbDTtm.ifUoLPXOBC38mA3",
            "resource": {
                "resourceType": "Encounter",
                "id": "eQWbDTtm.ifUoLPXOBC38mA3",
                "identifier": [
                    {
                        "use": "usual",
                        "system": "urn:oid:1.2.840.114350.1.13.0.1.7.3.698084.8",
                        "value": "6305"
                    }
                ],
                "status": "finished",
                "class": {
                    "system": "urn:oid:1.2.840.114350.1.72.1.7.7.10.696784.13260",
                    "code": "13",
                    "display": "Support OP Encounter"
                },
                "type": [
                    {
                        "coding": [
                            {
                                "system": "urn:oid:1.2.840.114350.1.13.0.1.7.10.698084.30",
                                "code": "1200",
                                "display": "Routine Prenatal"
                            }
                        ],
                        "text": "Routine Prenatal"
                    }
                ],
                "subject": {
                    "reference": "Patient/eVB8bWXMV4uGaGrpMPNFUOw3",
                    "display": "Obstetrics, Amy J"
                },
                "episodeOfCare": [
                    {
                        "reference": "EpisodeOfCare/eCnUKNNaAJNTybyErNVdRHw3",
                        "type": "EpisodeOfCare",
                        "display": "Pregnancy 1"
                    }
                ],
                "participant": [
                    {
                        "type": [
                            {
                                "text": "losAuthorizingPhysician"
                            }
                        ],
                        "individual": {
                            "reference": "Practitioner/eHdBpsN5eOyFCM2cUPgGuTw3",
                            "type": "Practitioner",
                            "display": "Physician Obstetrics, MD"
                        }
                    }
                ],
                "period": {
                    "start": "2012-09-08",
                    "end": "2012-09-08"
                },
                "location": [
                    {
                        "location": {
                            "reference": "Location/eBDEYzYrPL0Gg9ikW76NBzgtwO-F2yBytQjo9cNTYfZ83",
                            "display": "EMC OBGYN Clinic"
                        }
                    }
                ]
            },
            "search": {
                "mode": "match"
            }
        },
        {
            "link": [
                {
                    "relation": "self",
                    "url": "https://appmarket.epic.com/interconnect-amcurprd-oauth/api/FHIR/R4/Encounter/e1sfsLu3vmW56e2AiFbT3Zw3"
                }
            ],
            "fullUrl": "https://appmarket.epic.com/interconnect-amcurprd-oauth/api/FHIR/R4/Encounter/e1sfsLu3vmW56e2AiFbT3Zw3",
            "resource": {
                "resourceType": "Encounter",
                "id": "e1sfsLu3vmW56e2AiFbT3Zw3",
                "identifier": [
                    {
                        "use": "usual",
                        "system": "urn:oid:1.2.840.114350.1.13.0.1.7.3.698084.8",
                        "value": "6307"
                    }
                ],
                "status": "finished",
                "class": {
                    "system": "urn:oid:1.2.840.114350.1.72.1.7.7.10.696784.13260",
                    "code": "13",
                    "display": "Support OP Encounter"
                },
                "type": [
                    {
                        "coding": [
                            {
                                "system": "urn:oid:1.2.840.114350.1.13.0.1.7.10.698084.30",
                                "code": "1201",
                                "display": "Initial Prenatal"
                            }
                        ],
                        "text": "Initial Prenatal"
                    }
                ],
                "subject": {
                    "reference": "Patient/eVB8bWXMV4uGaGrpMPNFUOw3",
                    "display": "Obstetrics, Amy J"
                },
                "episodeOfCare": [
                    {
                        "reference": "EpisodeOfCare/eCnUKNNaAJNTybyErNVdRHw3",
                        "type": "EpisodeOfCare",
                        "display": "Pregnancy 1"
                    }
                ],
                "participant": [
                    {
                        "type": [
                            {
                                "text": "losAuthorizingPhysician"
                            }
                        ],
                        "individual": {
                            "reference": "Practitioner/eHdBpsN5eOyFCM2cUPgGuTw3",
                            "type": "Practitioner",
                            "display": "Physician Obstetrics, MD"
                        }
                    }
                ],
                "period": {
                    "start": "2012-08-09",
                    "end": "2012-08-09"
                },
                "reasonCode": [
                    {
                        "coding": [
                            {
                                "system": "urn:oid:1.2.840.114350.1.13.0.1.7.2.728286",
                                "code": "120001",
                                "display": "Initial Prenatal Visit"
                            }
                        ],
                        "text": "Initial Prenatal Visit"
                    }
                ],
                "location": [
                    {
                        "location": {
                            "reference": "Location/eBDEYzYrPL0Gg9ikW76NBzgtwO-F2yBytQjo9cNTYfZ83",
                            "display": "EMC OBGYN Clinic"
                        }
                    }
                ]
            },
            "search": {
                "mode": "match"
            }
        },
        {
            "link": [
                {
                    "relation": "self",
                    "url": "https://appmarket.epic.com/interconnect-amcurprd-oauth/api/FHIR/R4/Encounter/e5g1JVXDnZLeIarsRLttWZg3"
                }
            ],
            "fullUrl": "https://appmarket.epic.com/interconnect-amcurprd-oauth/api/FHIR/R4/Encounter/e5g1JVXDnZLeIarsRLttWZg3",
            "resource": {
                "resourceType": "Encounter",
                "id": "e5g1JVXDnZLeIarsRLttWZg3",
                "identifier": [
                    {
                        "use": "usual",
                        "system": "urn:oid:1.2.840.114350.1.13.0.1.7.3.698084.8",
                        "value": "6296"
                    }
                ],
                "status": "in-progress",
                "class": {
                    "system": "urn:oid:1.2.840.114350.1.72.1.7.7.10.696784.13260",
                    "code": "3",
                    "display": "Admission"
                },
                "type": [
                    {
                        "coding": [
                            {
                                "system": "urn:oid:1.2.840.114350.1.13.0.1.7.10.698084.10110",
                                "code": "104",
                                "display": "Observation"
                            }
                        ],
                        "text": "Observation"
                    },
                    {
                        "coding": [
                            {
                                "system": "urn:oid:1.2.840.114350.1.13.0.1.7.10.698084.30",
                                "code": "3",
                                "display": "Hospital Encounter"
                            }
                        ],
                        "text": "Hospital Encounter"
                    },
                    {
                        "coding": [
                            {
                                "system": "urn:oid:1.2.840.114350.1.13.0.1.7.10.698084.18875",
                                "code": "3",
                                "display": "Elective"
                            }
                        ],
                        "text": "Elective"
                    }
                ],
                "serviceType": {
                    "coding": [
                        {
                            "system": "urn:oid:1.2.840.114350.1.13.0.1.7.10.698084.18886",
                            "code": "117",
                            "display": "Obstetrics"
                        }
                    ],
                    "text": "Obstetrics"
                },
                "subject": {
                    "reference": "Patient/eVB8bWXMV4uGaGrpMPNFUOw3",
                    "display": "Obstetrics, Amy J"
                },
                "episodeOfCare": [
                    {
                        "reference": "EpisodeOfCare/eCnUKNNaAJNTybyErNVdRHw3",
                        "type": "EpisodeOfCare",
                        "display": "Pregnancy 1"
                    }
                ],
                "participant": [
                    {
                        "type": [
                            {
                                "coding": [
                                    {
                                        "system": "http://hl7.org/fhir/v3/ParticipationType",
                                        "code": "ADM",
                                        "display": "admitter"
                                    }
                                ],
                                "text": "admitter"
                            }
                        ],
                        "individual": {
                            "reference": "Practitioner/eHdBpsN5eOyFCM2cUPgGuTw3",
                            "type": "Practitioner",
                            "display": "Physician Obstetrics, MD"
                        }
                    },
                    {
                        "type": [
                            {
                                "coding": [
                                    {
                                        "system": "http://hl7.org/fhir/v3/ParticipationType",
                                        "code": "ATND",
                                        "display": "attender"
                                    }
                                ],
                                "text": "attender"
                            }
                        ],
                        "period": {
                            "start": "2013-04-17T21:28:35Z"
                        },
                        "individual": {
                            "reference": "Practitioner/eHdBpsN5eOyFCM2cUPgGuTw3",
                            "type": "Practitioner",
                            "display": "Physician Obstetrics, MD"
                        }
                    },
                    {
                        "extension": [
                            {
                                "valueCodeableConcept": {
                                    "coding": [
                                        {
                                            "system": "urn:oid:1.2.840.114350.1.13.0.1.7.4.698084.18832",
                                            "code": "22",
                                            "display": "Obstetrics and Gynecology"
                                        }
                                    ],
                                    "text": "Obstetrics and Gynecology"
                                },
                                "url": "http://open.epic.com/FHIR/StructureDefinition/extension/specialty"
                            }
                        ],
                        "type": [
                            {
                                "coding": [
                                    {
                                        "system": "urn:oid:1.2.840.114350.1.13.0.1.7.10.698084.18869",
                                        "code": "Surgeon",
                                        "display": "Surgeon"
                                    }
                                ],
                                "text": "Surgeon"
                            }
                        ],
                        "period": {
                            "start": "2013-11-15T09:44:20Z"
                        },
                        "individual": {
                            "reference": "Practitioner/eHdBpsN5eOyFCM2cUPgGuTw3",
                            "type": "Practitioner",
                            "display": "Physician Obstetrics, MD"
                        }
                    }
                ],
                "period": {
                    "start": "2013-04-17T21:28:35Z"
                },
                "reasonCode": [
                    {
                        "coding": [
                            {
                                "system": "urn:oid:1.2.840.114350.1.13.0.1.7.2.728286",
                                "code": "100563",
                                "display": "Contractions"
                            }
                        ],
                        "text": "Contractions"
                    }
                ],
                "account": [
                    {
                        "identifier": {
                            "system": "urn:oid:1.2.840.114350.1.13.0.1.7.2.726582",
                            "value": "583"
                        },
                        "display": "OBSTETRICS,AMY J"
                    }
                ],
                "hospitalization": {
                    "extension": [
                        {
                            "valueDateTime": "2013-04-17T21:28:35Z",
                            "url": "http://open.epic.com/FHIR/StructureDefinition/extension/observation-datetime"
                        }
                    ]
                },
                "location": [
                    {
                        "location": {
                            "reference": "Location/etk-blkZr.2.mHyBW6isfhjiMf0FMRauHE.XP765i1rY3",
                            "display": "EMH Labor and Delivery"
                        },
                        "period": {
                            "start": "2013-04-17T21:28:00Z",
                            "end": "2013-05-28T17:37:00Z"
                        }
                    },
                    {
                        "location": {
                            "reference": "Location/etk-blkZr.2.mHyBW6isfhjiMf0FMRauHE.XP765i1rY3",
                            "display": "EMH Labor and Delivery"
                        },
                        "period": {
                            "start": "2013-05-28T17:37:00Z"
                        }
                    },
                    {
                        "location": {
                            "reference": "Location/etk-blkZr.2.mHyBW6isfhjiMf0FMRauHE.XP765i1rY3",
                            "display": "EMH Labor and Delivery"
                        }
                    },
                    {
                        "location": {
                            "reference": "Location/eQSOrLdbVrMRc68KBcTBG4A3",
                            "display": "Epic Hospital System"
                        }
                    },
                    {
                        "location": {
                            "reference": "Location/eed2W0i5ZGrUYGO409QrynQ3",
                            "display": "L&D PACU"
                        },
                        "physicalType": {
                            "coding": [
                                {
                                    "system": "http://terminology.hl7.org/CodeSystem/location-physical-type",
                                    "code": "ro",
                                    "display": "Room"
                                }
                            ],
                            "text": "Room"
                        }
                    },
                    {
                        "location": {
                            "identifier": {
                                "system": "urn:oid:1.2.840.114350.1.13.0.1.7.2.666968",
                                "value": "829"
                            },
                            "display": "L&D - PACU 3"
                        },
                        "physicalType": {
                            "coding": [
                                {
                                    "system": "http://terminology.hl7.org/CodeSystem/location-physical-type",
                                    "code": "bd",
                                    "display": "Bed"
                                }
                            ],
                            "text": "Bed"
                        }
                    }
                ]
            },
            "search": {
                "mode": "include"
            }
        },
        {
            "link": [
                {
                    "relation": "self",
                    "url": "https://appmarket.epic.com/interconnect-amcurprd-oauth/api/FHIR/R4/EpisodeOfCare/eCnUKNNaAJNTybyErNVdRHw3"
                }
            ],
            "fullUrl": "https://appmarket.epic.com/interconnect-amcurprd-oauth/api/FHIR/R4/EpisodeOfCare/eCnUKNNaAJNTybyErNVdRHw3",
            "resource": {
                "resourceType": "EpisodeOfCare",
                "id": "eCnUKNNaAJNTybyErNVdRHw3",
                "extension": [
                    {
                        "valueString": "Pregnancy 1",
                        "url": "http://open.epic.com/FHIR/StructureDefinition/extension/episode-name"
                    }
                ],
                "status": "finished",
                "type": [
                    {
                        "coding": [
                            {
                                "system": "urn:oid:1.2.840.114350.1.13.0.1.7.2.726668",
                                "code": "2",
                                "display": "Pregnancy"
                            },
                            {
                                "system": "urn:oid:1.2.840.114350.1.13.0.1.7.4.726668.130",
                                "code": "1",
                                "display": "Obstetrics"
                            }
                        ],
                        "text": "Pregnancy"
                    }
                ],
                "patient": {
                    "reference": "Patient/eVB8bWXMV4uGaGrpMPNFUOw3",
                    "type": "Patient",
                    "display": "Obstetrics, Amy J"
                },
                "period": {
                    "start": "2012-08-09",
                    "end": "2017-07-05"
                },
                "team": [
                    {
                        "reference": "CareTeam/eDksxRbPDPDfwYGF91NRp5WunK5nDXEPboBA0kbMXzWQ3",
                        "type": "CareTeam"
                    }
                ]
            },
            "search": {
                "mode": "include"
            }
        },
        {
            "link": [
                {
                    "relation": "self",
                    "url": "https://appmarket.epic.com/interconnect-amcurprd-oauth/api/FHIR/R4/Patient/eVB8bWXMV4uGaGrpMPNFUOw3"
                }
            ],
            "fullUrl": "https://appmarket.epic.com/interconnect-amcurprd-oauth/api/FHIR/R4/Patient/eVB8bWXMV4uGaGrpMPNFUOw3",
            "resource": {
                "resourceType": "Patient",
                "id": "eVB8bWXMV4uGaGrpMPNFUOw3",
                "extension": [
                    {
                        "extension": [
                            {
                                "valueCoding": {
                                    "system": "http://terminology.hl7.org/CodeSystem/v3-NullFlavor",
                                    "code": "UNK",
                                    "display": "Unknown"
                                },
                                "url": "ombCategory"
                            },
                            {
                                "valueString": "Unknown",
                                "url": "text"
                            }
                        ],
                        "url": "http://hl7.org/fhir/us/core/StructureDefinition/us-core-race"
                    },
                    {
                        "extension": [
                            {
                                "valueString": "Unknown",
                                "url": "text"
                            }
                        ],
                        "url": "http://hl7.org/fhir/us/core/StructureDefinition/us-core-ethnicity"
                    },
                    {
                        "valueCodeableConcept": {
                            "coding": [
                                {
                                    "system": "urn:oid:1.2.840.114350.1.13.0.1.7.10.698084.130.657370.19999000",
                                    "code": "female",
                                    "display": "female"
                                }
                            ]
                        },
                        "url": "http://open.epic.com/FHIR/StructureDefinition/extension/legal-sex"
                    },
                    {
                        "valueCodeableConcept": {
                            "coding": [
                                {
                                    "system": "urn:oid:1.2.840.114350.1.13.0.1.7.10.698084.130.657370.19999000",
                                    "code": "female",
                                    "display": "female"
                                }
                            ]
                        },
                        "url": "http://open.epic.com/FHIR/StructureDefinition/extension/sex-for-clinical-use"
                    },
                    {
                        "valueCode": "F",
                        "url": "http://hl7.org/fhir/us/core/StructureDefinition/us-core-birthsex"
                    }
                ],
                "identifier": [
                    {
                        "use": "usual",
                        "system": "urn:oid:2.16.840.1.113883.4.1",
                        "value": "100-34-7670"
                    },
                    {
                        "use": "usual",
                        "type": {
                            "text": "CEID"
                        },
                        "system": "urn:epic:apporchard.curprod",
                        "value": "AO12CM499SGTLK8"
                    },
                    {
                        "use": "usual",
                        "type": {
                            "text": "EPIC"
                        },
                        "system": "urn:oid:1.2.840.114350.1.1",
                        "value": "E3247"
                    },
                    {
                        "use": "usual",
                        "type": {
                            "text": "EXTERNAL"
                        },
                        "system": "urn:oid:1.2.840.114350.1.13.0.1.7.2.698084",
                        "value": "Z4942"
                    },
                    {
                        "use": "usual",
                        "type": {
                            "text": "FHIR"
                        },
                        "system": "http://open.epic.com/FHIR/StructureDefinition/patient-dstu2-fhir-id",
                        "value": "Tpn0OGXM0vpmOB6G6WcAY59Jj4SzgSf2yazKdIIk0i2cB"
                    },
                    {
                        "use": "usual",
                        "type": {
                            "text": "FHIR STU3"
                        },
                        "system": "http://open.epic.com/FHIR/StructureDefinition/patient-fhir-id",
                        "value": "eVB8bWXMV4uGaGrpMPNFUOw3"
                    },
                    {
                        "use": "usual",
                        "type": {
                            "text": "INTERNAL"
                        },
                        "system": "urn:oid:1.2.840.114350.1.13.0.1.7.2.698084",
                        "value": "     Z4942"
                    },
                    {
                        "use": "usual",
                        "type": {
                            "text": "MRN"
                        },
                        "system": "urn:oid:1.2.840.114350.1.13.0.1.7.5.737384.14",
                        "value": "202997"
                    },
                    {
                        "use": "usual",
                        "type": {
                            "text": "MYCHARTLOGIN"
                        },
                        "system": "urn:oid:1.2.840.114350.1.13.0.1.7.3.878082.110",
                        "value": "OBAMYJ"
                    },
                    {
                        "use": "usual",
                        "type": {
                            "text": "WPRINTERNAL"
                        },
                        "system": "urn:oid:1.2.840.114350.1.13.0.1.7.2.878082",
                        "value": "469"
                    }
                ],
                "active": true,
                "name": [
                    {
                        "use": "official",
                        "text": "Amy J Obstetrics",
                        "family": "Obstetrics",
                        "given": [
                            "Amy",
                            "J"
                        ]
                    },
                    {
                        "use": "usual",
                        "text": "Amy J Obstetrics",
                        "family": "Obstetrics",
                        "given": [
                            "Amy",
                            "J"
                        ]
                    }
                ],
                "telecom": [
                    {
                        "system": "phone",
                        "value": "608-251-1157",
                        "use": "home"
                    },
                    {
                        "system": "phone",
                        "value": "608-251-8845",
                        "use": "work"
                    },
                    {
                        "system": "phone",
                        "value": "608-213-1477",
                        "use": "mobile"
                    }
                ],
                "gender": "female",
                "birthDate": "1983-10-01",
                "deceasedBoolean": false,
                "address": [
                    {
                        "use": "home",
                        "line": [
                            "311 Maple Lane"
                        ],
                        "city": "Madison",
                        "state": "WI",
                        "postalCode": "53713",
                        "country": "US"
                    }
                ],
                "maritalStatus": {
                    "text": "Married"
                },
                "contact": [
                    {
                        "relationship": [
                            {
                                "coding": [
                                    {
                                        "system": "http://terminology.hl7.org/CodeSystem/v2-0131",
                                        "code": "C",
                                        "display": "Emergency Contact"
                                    },
                                    {
                                        "system": "urn:oid:1.2.840.114350.1.13.0.1.7.4.827665.1000",
                                        "code": "17",
                                        "display": "Spouse"
                                    }
                                ],
                                "text": "Spouse"
                            }
                        ],
                        "name": {
                            "use": "usual",
                            "text": "Obstetrics,Elliot"
                        }
                    }
                ],
                "generalPractitioner": [
                    {
                        "reference": "Practitioner/eM5CWtq15N0WJeuCet5bJlQ3",
                        "type": "Practitioner",
                        "display": "Physician Family Medicine, MD"
                    }
                ],
                "managingOrganization": {
                    "reference": "Organization/enRyWnSP963FYDpoks4NHOA3",
                    "display": "Epic Hospital System"
                }
            },
            "search": {
                "mode": "include"
            }
        }
    ]
}