{
    "resourceType": "Bundle",
    "type": "searchset",
    "total": 66,
    "link": [
        {
            "relation": "self",
            "url": "https://appmarket.epic.com/interconnect-amcurprd-oauth/api/FHIR/R4/Encounter?_include=Encounter:condition&_include=Encounter:episodeOfCare&_include=Encounter:partOf&_include=Encounter:subject&_format=json&patient=e5rIBf2NPDop-ql3grzUdvw3"
        }
    ],
    "entry": [
        {
            "link": [
                {
                    "relation": "self",
                    "url": "https://appmarket.epic.com/interconnect-amcurprd-oauth/api/FHIR/R4/Encounter/eSel.gHTgrqeRN9CiGhVAJg3"
                }
            ],
            "fullUrl": "https://appmarket.epic.com/interconnect-amcurprd-oauth/api/FHIR/R4/Encounter/eSel.gHTgrqeRN9CiGhVAJg3",
            "resource": {
                "resourceType": "Encounter",
                "id": "eSel.gHTgrqeRN9CiGhVAJg3",
                "identifier": [
                    {
                        "use": "usual",
                        "system": "urn:oid:1.2.840.114350.1.13.0.1.7.3.698084.8",
                        "value": "20105"
                    }
                ],
                "status": "finished",
                "class": {
                    "system": "urn:oid:1.2.840.114350.1.72.1.7.7.10.696784.13260",
                    "code": "13",
                    "display": "Support OP Encounter"
                },
                "type": [
                    {
                        "coding": [
                            {
                                "system": "urn:oid:1.2.840.114350.1.13.0.1.7.10.698084.30",
                                "code": "111",
                                "display": "Orders Only"
                            }
                        ],
                        "text": "Orders Only"
                    }
                ],
                "subject": {
                    "reference": "Patient/e5rIBf2NPDop-ql3grzUdvw3",
                    "display": "Beacon, Emily"
                },
                "episodeOfCare": [
                    {
                        "reference": "EpisodeOfCare/ek-Ltx7UefeGaDQch7a-0HQ3",
                        "type": "EpisodeOfCare",
                        "display": "ONCOLOGY TREATMENT"
                    }
                ],
                "participant": [
                    {
                        "individual": {
                            "reference": "Practitioner/eM5CWtq15N0WJeuCet5bJlQ3",
                            "type": "Practitioner",
                            "display": "Physician Family Medicine, MD"
                        }
                    }
                ],
                "period": {
                    "start": "2014-10-09",
                    "end": "2014-10-09"
                },
                "location": [
                    {
                        "location": {
                            "reference": "Location/eIFJdH1hm1mbcKtakI4NHq27tpuUFeCGavbGSaa6v1os3",
                            "display": "EMH Oncology Clinic"
                        }
                    }
                ]
            },
            "search": {
                "mode": "match"
            }
        },
        {
            "link": [
                {
                    "relation": "self",
                    "url": "https://appmarket.epic.com/interconnect-amcurprd-oauth/api/FHIR/R4/Encounter/efqCuClKqjPSyNCqMoTxZdA3"
                }
            ],
            "fullUrl": "https://appmarket.epic.com/interconnect-amcurprd-oauth/api/FHIR/R4/Encounter/efqCuClKqjPSyNCqMoTxZdA3",
            "resource": {
                "resourceType": "Encounter",
                "id": "efqCuClKqjPSyNCqMoTxZdA3",
                "identifier": [
                    {
                        "use": "usual",
                        "system": "urn:oid:1.2.840.114350.1.13.0.1.7.3.698084.8",
                        "value": "488"
                    }
                ],
                "status": "finished",
                "class": {
                    "system": "urn:oid:1.2.840.114350.1.72.1.7.7.10.696784.13260",
                    "code": "13",
                    "display": "Support OP Encounter"
                },
                "type": [
                    {
                        "coding": [
                            {
                                "system": "urn:oid:1.2.840.114350.1.13.0.1.7.10.698084.30",
                                "code": "111",
                                "display": "Orders Only"
                            }
                        ],
                        "text": "Orders Only"
                    }
                ],
                "subject": {
                    "reference": "Patient/e5rIBf2NPDop-ql3grzUdvw3",
                    "display": "Beacon, Emily"
                },
                "episodeOfCare": [
                    {
                        "reference": "EpisodeOfCare/ek-Ltx7UefeGaDQch7a-0HQ3",
                        "type": "EpisodeOfCare",
                        "display": "ONCOLOGY TREATMENT"
                    }
                ],
                "participant": [
                    {
                        "individual": {
                            "reference": "Practitioner/eM5CWtq15N0WJeuCet5bJlQ3",
                            "type": "Practitioner",
                            "display": "Physician Family Medicine, MD"
                        }
                    }
                ],
                "period": {
                    "start": "2013-09-12",
                    "end": "2013-09-12"
                },
                "location": [
                    {
                        "location": {
                            "reference": "Location/eUkRLjoR5rbU.ZJMq6HpRHRBoag3DghclLPf53fcA8.g3",
                            "display": "EMC Oncology Clinic"
                        }
                    }
                ]
            },
            "search": {
                "mode": "match"
            }
        },
        {
            "link": [
                {
                    "relation": "self",
                    "url": "https://appmarket.epic.com/interconnect-amcurprd-oauth/api/FHIR/R4/Encounter/eHJzseRZTfmTHqg3Mk16hcQ3"
                }
            ],
            "fullUrl": "https://appmarket.epic.com/interconnect-amcurprd-oauth/api/FHIR/R4/Encounter/eHJzseRZTfmTHqg3Mk16hcQ3",
            "resource": {
                "resourceType": "Encounter",
                "id": "eHJzseRZTfmTHqg3Mk16hcQ3",
                "identifier": [
                    {
                        "use": "usual",
                        "system": "urn:oid:1.2.840.114350.1.13.0.1.7.3.698084.8",
                        "value": "490"
                    }
                ],
                "status": "in-progress",
                "class": {
                    "system": "urn:oid:1.2.840.114350.1.72.1.7.7.10.696784.13260",
                    "code": "4",
                    "display": "HOV"
                },
                "type": [
                    {
                        "coding": [
                            {
                                "system": "urn:oid:1.2.840.114350.1.13.0.1.7.10.698084.10110",
                                "code": "102",
                                "display": "Outpatient"
                            }
                        ],
                        "text": "Outpatient"
                    },
                    {
                        "coding": [
                            {
                                "system": "urn:oid:1.2.840.114350.1.13.0.1.7.10.698084.30",
                                "code": "3",
                                "display": "Hospital Encounter"
                            }
                        ],
                        "text": "Hospital Encounter"
                    },
                    {
                        "coding": [
                            {
                                "system": "urn:oid:1.2.840.114350.1.13.0.1.7.2.808267",
                                "code": "1001",
                                "display": "Consultation"
                            }
                        ],
                        "text": "Consultation"
                    },
                    {
                        "coding": [
                            {
                                "system": "urn:oid:1.2.840.114350.1.13.0.1.7.10.698084.18875",
                                "code": "2",
                                "display": "Urgent"
                            }
                        ],
                        "text": "Urgent"
                    }
                ],
                "subject": {
                    "reference": "Patient/e5rIBf2NPDop-ql3grzUdvw3",
                    "display": "Beacon, Emily"
                },
                "participant": [
                    {
                        "period": {
                            "start": "2013-07-29T17:00:00Z",
                            "end": "2013-07-29T17:30:00Z"
                        },
                        "individual": {
                            "reference": "Practitioner/ec30Z4SAQpUQUkACxUZVihQ3",
                            "display": "Physician Beacon, MD"
                        }
                    }
                ],
                "period": {
                    "start": "2013-07-29T17:00:00Z"
                },
                "reasonCode": [
                    {
                        "coding": [
                            {
                                "system": "urn:oid:1.2.840.114350.1.13.0.1.7.2.728286",
                                "code": "160078",
                                "display": "Breast Mass"
                            }
                        ],
                        "text": "Breast Mass"
                    }
                ],
                "account": [
                    {
                        "identifier": {
                            "system": "urn:oid:1.2.840.114350.1.13.0.1.7.2.726582",
                            "value": "27"
                        },
                        "display": "BEACON,EMILY"
                    }
                ],
                "hospitalization": {
                    "extension": [
                        {
                            "valueDateTime": "2013-07-29T17:00:00Z",
                            "url": "http://open.epic.com/FHIR/StructureDefinition/extension/observation-datetime"
                        }
                    ],
                    "admitSource": {
                        "coding": [
                            {
                                "system": "urn:oid:1.2.840.114350.1.13.0.1.7.10.698084.10310",
                                "code": "2",
                                "display": "Physician or Clinic Office"
                            }
                        ],
                        "text": "Physician or Clinic Office"
                    }
                },
                "location": [
                    {
                        "location": {
                            "reference": "Location/eIFJdH1hm1mbcKtakI4NHq27tpuUFeCGavbGSaa6v1os3",
                            "display": "EMH Oncology Clinic"
                        }
                    },
                    {
                        "location": {
                            "reference": "Location/eIFJdH1hm1mbcKtakI4NHq27tpuUFeCGavbGSaa6v1os3",
                            "display": "EMH Oncology Clinic"
                        }
                    },
                    {
                        "location": {
                            "reference": "Location/eQSOrLdbVrMRc68KBcTBG4A3",
                            "display": "Epic Hospital System"
                        }
                    }
                ]
            },
            "search": {
                "mode": "match"
            }
        },
        {
            "link": [
                {
                    "relation": "self",
                    "url": "https://appmarket.epic.com/interconnect-amcurprd-oauth/api/FHIR/R4/Encounter/eddNjltv7gBcLr1ZfQC.Pcw3"
                }
            ],
            "fullUrl": "https://appmarket.epic.com/interconnect-amcurprd-oauth/api/FHIR/R4/Encounter/eddNjltv7gBcLr1ZfQC.Pcw3",
            "resource": {
                "resourceType": "Encounter",
                "id": "eddNjltv7gBcLr1ZfQC.Pcw3",
                "identifier": [
                    {
                        "use": "usual",
                        "system": "urn:oid:1.2.840.114350.1.13.0.1.7.3.698084.8",
                        "value": "491"
                    }
                ],
                "status": "arrived",
                "class": {
                    "system": "urn:oid:1.2.840.114350.1.72.1.7.7.10.696784.13260",
                    "code": "5",
                    "display": "Appointment"
                },
                "type": [
                    {
                        "coding": [
                            {
                                "system": "urn:oid:1.2.840.114350.1.13.0.1.7.10.698084.30",
                                "code": "101",
                                "display": "Office Visit"
                            }
                        ],
                        "text": "Office Visit"
                    },
                    {
                        "coding": [
                            {
                                "system": "urn:oid:1.2.840.114350.1.13.0.1.7.2.808267",
                                "code": "1004",
                                "display": "Office Visit"
                            }
                        ],
                        "text": "Office Visit"
                    }
                ],
                "subject": {
                    "reference": "Patient/e5rIBf2NPDop-ql3grzUdvw3",
                    "display": "Beacon, Emily"
                },
                "participant": [
                    {
                        "period": {
                            "start": "2013-06-29T18:00:00Z",
                            "end": "2013-06-29T18:15:00Z"
                        },
                        "individual": {
                            "reference": "Practitioner/eM5CWtq15N0WJeuCet5bJlQ3",
                            "display": "Physician Family Medicine, MD"
                        }
                    }
                ],
                "period": {
                    "start": "2013-06-29T18:00:00Z",
                    "end": "2013-06-29T18:15:00Z"
                },
                "reasonCode": [
                    {
                        "coding": [
                            {
                                "system": "urn:oid:1.2.840.114350.1.13.0.1.7.2.728286",
                                "code": "16",
                                "display": "Breast Problem"
                            }
                        ],
                        "text": "Breast Problem"
                    }
                ],
                "location": [
                    {
                        "location": {
                            "reference": "Location/e4W4rmGe9QzuGm2Dy4NBqVc0KDe6yGld6HW95UuN-Qd03",
                            "display": "EMC Family Medicine"
                        }
                    }
                ]
            },
            "search": {
                "mode": "match"
            }
        },
        {
            "link": [
                {
                    "relation": "self",
                    "url": "https://appmarket.epic.com/interconnect-amcurprd-oauth/api/FHIR/R4/Encounter/eaUrztT90PWkvpD.oaugZPg3"
                }
            ],
            "fullUrl": "https://appmarket.epic.com/interconnect-amcurprd-oauth/api/FHIR/R4/Encounter/eaUrztT90PWkvpD.oaugZPg3",
            "resource": {
                "resourceType": "Encounter",
                "id": "eaUrztT90PWkvpD.oaugZPg3",
                "identifier": [
                    {
                        "use": "usual",
                        "system": "urn:oid:1.2.840.114350.1.13.0.1.7.3.698084.8",
                        "value": "492"
                    }
                ],
                "status": "arrived",
                "class": {
                    "system": "urn:oid:1.2.840.114350.1.72.1.7.7.10.696784.13260",
                    "code": "5",
                    "display": "Appointment"
                },
                "type": [
                    {
                        "coding": [
                            {
                                "system": "urn:oid:1.2.840.114350.1.13.0.1.7.10.698084.30",
                                "code": "101",
                                "display": "Office Visit"
                            }
                        ],
                        "text": "Office Visit"
                    },
                    {
                        "coding": [
                            {
                                "system": "urn:oid:1.2.840.114350.1.13.0.1.7.2.808267",
                                "code": "1004",
                                "display": "Office Visit"
                            }
                        ],
                        "text": "Office Visit"
                    }
                ],
                "subject": {
                    "reference": "Patient/e5rIBf2NPDop-ql3grzUdvw3",
                    "display": "Beacon, Emily"
                },
                "participant": [
                    {
                        "period": {
                            "start": "2013-04-30T17:45:00Z",
                            "end": "2013-04-30T18:00:00Z"
                        },
                        "individual": {
                            "reference": "Practitioner/eM5CWtq15N0WJeuCet5bJlQ3",
                            "display": "Physician Family Medicine, MD"
                        }
                    }
                ],
                "period": {
                    "start": "2013-04-30T17:45:00Z",
                    "end": "2013-04-30T18:00:00Z"
                },
                "reasonCode": [
                    {
                        "coding": [
                            {
                                "system": "urn:oid:1.2.840.114350.1.13.0.1.7.2.728286",
                                "code": "83",
                                "display": "Annual Exam"
                            }
                        ],
                        "text": "Annual Exam"
                    },
                    {
                        "coding": [
                            {
                                "system": "urn:oid:1.2.840.114350.1.13.0.1.7.2.728286",
                                "code": "160698",
                                "display": "Migraine"
                            }
                        ],
                        "text": "Migraine"
                    }
                ],
                "location": [
                    {
                        "location": {
                            "reference": "Location/e4W4rmGe9QzuGm2Dy4NBqVc0KDe6yGld6HW95UuN-Qd03",
                            "display": "EMC Family Medicine"
                        }
                    }
                ]
            },
            "search": {
                "mode": "match"
            }
        },
        {
            "link": [
                {
                    "relation": "self",
                    "url": "https://appmarket.epic.com/interconnect-amcurprd-oauth/api/FHIR/R4/Encounter/eeheVoqv0jdb0SoEKJd-YDQ3"
                }
            ],
            "fullUrl": "https://appmarket.epic.com/interconnect-amcurprd-oauth/api/FHIR/R4/Encounter/eeheVoqv0jdb0SoEKJd-YDQ3",
            "resource": {
                "resourceType": "Encounter",
                "id": "eeheVoqv0jdb0SoEKJd-YDQ3",
                "identifier": [
                    {
                        "use": "usual",
                        "system": "urn:oid:1.2.840.114350.1.13.0.1.7.3.698084.8",
                        "value": "493"
                    }
                ],
                "status": "arrived",
                "class": {
                    "system": "urn:oid:1.2.840.114350.1.72.1.7.7.10.696784.13260",
                    "code": "5",
                    "display": "Appointment"
                },
                "type": [
                    {
                        "coding": [
                            {
                                "system": "urn:oid:1.2.840.114350.1.13.0.1.7.10.698084.30",
                                "code": "101",
                                "display": "Office Visit"
                            }
                        ],
                        "text": "Office Visit"
                    },
                    {
                        "coding": [
                            {
                                "system": "urn:oid:1.2.840.114350.1.13.0.1.7.2.808267",
                                "code": "1004",
                                "display": "Office Visit"
                            }
                        ],
                        "text": "Office Visit"
                    }
                ],
                "subject": {
                    "reference": "Patient/e5rIBf2NPDop-ql3grzUdvw3",
                    "display": "Beacon, Emily"
                },
                "participant": [
                    {
                        "period": {
                            "start": "2012-05-04T17:30:00Z",
                            "end": "2012-05-04T17:45:00Z"
                        },
                        "individual": {
                            "reference": "Practitioner/eM5CWtq15N0WJeuCet5bJlQ3",
                            "display": "Physician Family Medicine, MD"
                        }
                    }
                ],
                "period": {
                    "start": "2012-05-04T17:30:00Z",
                    "end": "2012-05-04T17:45:00Z"
                },
                "reasonCode": [
                    {
                        "coding": [
                            {
                                "system": "urn:oid:1.2.840.114350.1.13.0.1.7.2.728286",
                                "code": "83",
                                "display": "Annual Exam"
                            }
                        ],
                        "text": "Annual Exam"
                    }
                ],
                "location": [
                    {
                        "location": {
                            "reference": "Location/e4W4rmGe9QzuGm2Dy4NBqVc0KDe6yGld6HW95UuN-Qd03",
                            "display": "EMC Family Medicine"
                        }
                    }
                ]
            },
            "search": {
                "mode": "match"
            }
        },
        {
            "link": [
                {
                    "relation": "self",
                    "url": "https://appmarket.epic.com/interconnect-amcurprd-oauth/api/FHIR/R4/Encounter/ektL2-dVKW4quF-DkRNJ4jw3"
                }
            ],
            "fullUrl": "https://appmarket.epic.com/interconnect-amcurprd-oauth/api/FHIR/R4/Encounter/ektL2-dVKW4quF-DkRNJ4jw3",
            "resource": {
                "resourceType": "Encounter",
                "id": "ektL2-dVKW4quF-DkRNJ4jw3",
                "identifier": [
                    {
                        "use": "usual",
                        "system": "urn:oid:1.2.840.114350.1.13.0.1.7.3.698084.8",
                        "value": "494"
                    }
                ],
                "status": "unknown",
                "class": {
                    "system": "urn:oid:1.2.840.114350.1.72.1.7.7.10.696784.13260",
                    "code": "13",
                    "display": "Support OP Encounter"
                },
                "subject": {
                    "reference": "Patient/e5rIBf2NPDop-ql3grzUdvw3",
                    "display": "Beacon, Emily"
                },
                "participant": [
                    {
                        "individual": {
                            "reference": "Practitioner/eM5CWtq15N0WJeuCet5bJlQ3",
                            "type": "Practitioner",
                            "display": "Physician Family Medicine, MD"
                        }
                    }
                ],
                "period": {
                    "start": "2011-09-08",
                    "end": "2011-09-08"
                }
            },
            "search": {
                "mode": "match"
            }
        },
        {
            "link": [
                {
                    "relation": "self",
                    "url": "https://appmarket.epic.com/interconnect-amcurprd-oauth/api/FHIR/R4/Encounter/e2CvQH6TAIydDWK3r9derzA3"
                }
            ],
            "fullUrl": "https://appmarket.epic.com/interconnect-amcurprd-oauth/api/FHIR/R4/Encounter/e2CvQH6TAIydDWK3r9derzA3",
            "resource": {
                "resourceType": "Encounter",
                "id": "e2CvQH6TAIydDWK3r9derzA3",
                "identifier": [
                    {
                        "use": "usual",
                        "system": "urn:oid:1.2.840.114350.1.13.0.1.7.3.698084.8",
                        "value": "495"
                    }
                ],
                "status": "unknown",
                "class": {
                    "system": "urn:oid:1.2.840.114350.1.72.1.7.7.10.696784.13260",
                    "code": "13",
                    "display": "Support OP Encounter"
                },
                "subject": {
                    "reference": "Patient/e5rIBf2NPDop-ql3grzUdvw3",
                    "display": "Beacon, Emily"
                },
                "participant": [
                    {
                        "individual": {
                            "reference": "Practitioner/eM5CWtq15N0WJeuCet5bJlQ3",
                            "type": "Practitioner",
                            "display": "Physician Family Medicine, MD"
                        }
                    }
                ],
                "period": {
                    "start": "2011-09-08",
                    "end": "2011-09-08"
                }
            },
            "search": {
                "mode": "match"
            }
        },
        {
            "link": [
                {
                    "relation": "self",
                    "url": "https://appmarket.epic.com/interconnect-amcurprd-oauth/api/FHIR/R4/Encounter/eENdaQvK07BW1Mdj5WNLB.g3"
                }
            ],
            "fullUrl": "https://appmarket.epic.com/interconnect-amcurprd-oauth/api/FHIR/R4/Encounter/eENdaQvK07BW1Mdj5WNLB.g3",
            "resource": {
                "resourceType": "Encounter",
                "id": "eENdaQvK07BW1Mdj5WNLB.g3",
                "identifier": [
                    {
                        "use": "usual",
                        "system": "urn:oid:1.2.840.114350.1.13.0.1.7.3.698084.8",
                        "value": "496"
                    }
                ],
                "status": "unknown",
                "class": {
                    "system": "urn:oid:1.2.840.114350.1.72.1.7.7.10.696784.13260",
                    "code": "13",
                    "display": "Support OP Encounter"
                },
                "subject": {
                    "reference": "Patient/e5rIBf2NPDop-ql3grzUdvw3",
                    "display": "Beacon, Emily"
                },
                "participant": [
                    {
                        "individual": {
                            "reference": "Practitioner/eM5CWtq15N0WJeuCet5bJlQ3",
                            "type": "Practitioner",
                            "display": "Physician Family Medicine, MD"
                        }
                    }
                ],
                "period": {
                    "start": "2011-08-09",
                    "end": "2011-08-09"
                }
            },
            "search": {
                "mode": "match"
            }
        },
        {
            "link": [
                {
                    "relation": "self",
                    "url": "https://appmarket.epic.com/interconnect-amcurprd-oauth/api/FHIR/R4/Encounter/eiptOQy7mxhgxulbYEvZOew3"
                }
            ],
            "fullUrl": "https://appmarket.epic.com/interconnect-amcurprd-oauth/api/FHIR/R4/Encounter/eiptOQy7mxhgxulbYEvZOew3",
            "resource": {
                "resourceType": "Encounter",
                "id": "eiptOQy7mxhgxulbYEvZOew3",
                "identifier": [
                    {
                        "use": "usual",
                        "system": "urn:oid:1.2.840.114350.1.13.0.1.7.3.698084.8",
                        "value": "497"
                    }
                ],
                "status": "unknown",
                "class": {
                    "system": "urn:oid:1.2.840.114350.1.72.1.7.7.10.696784.13260",
                    "code": "13",
                    "display": "Support OP Encounter"
                },
                "subject": {
                    "reference": "Patient/e5rIBf2NPDop-ql3grzUdvw3",
                    "display": "Beacon, Emily"
                },
                "participant": [
                    {
                        "individual": {
                            "reference": "Practitioner/eM5CWtq15N0WJeuCet5bJlQ3",
                            "type": "Practitioner",
                            "display": "Physician Family Medicine, MD"
                        }
                    }
                ],
                "period": {
                    "start": "2011-06-10",
                    "end": "2011-06-10"
                }
            },
            "search": {
                "mode": "match"
            }
        },
        {
            "link": [
                {
                    "relation": "self",
                    "url": "https://appmarket.epic.com/interconnect-amcurprd-oauth/api/FHIR/R4/Encounter/eTCxIuzldB0HtyYeZ3R3oSg3"
                }
            ],
            "fullUrl": "https://appmarket.epic.com/interconnect-amcurprd-oauth/api/FHIR/R4/Encounter/eTCxIuzldB0HtyYeZ3R3oSg3",
            "resource": {
                "resourceType": "Encounter",
                "id": "eTCxIuzldB0HtyYeZ3R3oSg3",
                "identifier": [
                    {
                        "use": "usual",
                        "system": "urn:oid:1.2.840.114350.1.13.0.1.7.3.698084.8",
                        "value": "498"
                    }
                ],
                "status": "arrived",
                "class": {
                    "system": "urn:oid:1.2.840.114350.1.72.1.7.7.10.696784.13260",
                    "code": "5",
                    "display": "Appointment"
                },
                "type": [
                    {
                        "coding": [
                            {
                                "system": "urn:oid:1.2.840.114350.1.13.0.1.7.10.698084.30",
                                "code": "101",
                                "display": "Office Visit"
                            }
                        ],
                        "text": "Office Visit"
                    },
                    {
                        "coding": [
                            {
                                "system": "urn:oid:1.2.840.114350.1.13.0.1.7.2.808267",
                                "code": "1004",
                                "display": "Office Visit"
                            }
                        ],
                        "text": "Office Visit"
                    }
                ],
                "subject": {
                    "reference": "Patient/e5rIBf2NPDop-ql3grzUdvw3",
                    "display": "Beacon, Emily"
                },
                "participant": [
                    {
                        "period": {
                            "start": "2011-05-03T16:45:00Z",
                            "end": "2011-05-03T17:00:00Z"
                        },
                        "individual": {
                            "reference": "Practitioner/eM5CWtq15N0WJeuCet5bJlQ3",
                            "display": "Physician Family Medicine, MD"
                        }
                    }
                ],
                "period": {
                    "start": "2011-05-03T16:45:00Z",
                    "end": "2011-05-03T17:00:00Z"
                },
                "reasonCode": [
                    {
                        "coding": [
                            {
                                "system": "urn:oid:1.2.840.114350.1.13.0.1.7.2.728286",
                                "code": "83",
                                "display": "Annual Exam"
                            }
                        ],
                        "text": "Annual Exam"
                    }
                ],
                "location": [
                    {
                        "location": {
                            "reference": "Location/e4W4rmGe9QzuGm2Dy4NBqVc0KDe6yGld6HW95UuN-Qd03",
                            "display": "EMC Family Medicine"
                        }
                    }
                ]
            },
            "search": {
                "mode": "match"
            }
        },
        {
            "link": [
                {
                    "relation": "self",
                    "url": "https://appmarket.epic.com/interconnect-amcurprd-oauth/api/FHIR/R4/Encounter/efMnULzMSTrVu1Ny3J1nwxg3"
                }
            ],
            "fullUrl": "https://appmarket.epic.com/interconnect-amcurprd-oauth/api/FHIR/R4/Encounter/efMnULzMSTrVu1Ny3J1nwxg3",
            "resource": {
                "resourceType": "Encounter",
                "id": "efMnULzMSTrVu1Ny3J1nwxg3",
                "identifier": [
                    {
                        "use": "usual",
                        "system": "urn:oid:1.2.840.114350.1.13.0.1.7.3.698084.8",
                        "value": "499"
                    }
                ],
                "status": "finished",
                "class": {
                    "system": "urn:oid:1.2.840.114350.1.72.1.7.7.10.696784.13260",
                    "code": "13",
                    "display": "Support OP Encounter"
                },
                "type": [
                    {
                        "coding": [
                            {
                                "system": "urn:oid:1.2.840.114350.1.13.0.1.7.10.698084.30",
                                "code": "107",
                                "display": "Refill"
                            }
                        ],
                        "text": "Refill"
                    }
                ],
                "subject": {
                    "reference": "Patient/e5rIBf2NPDop-ql3grzUdvw3",
                    "display": "Beacon, Emily"
                },
                "participant": [
                    {
                        "individual": {
                            "reference": "Practitioner/eM5CWtq15N0WJeuCet5bJlQ3",
                            "type": "Practitioner",
                            "display": "Physician Family Medicine, MD"
                        }
                    }
                ],
                "period": {
                    "start": "2011-03-24",
                    "end": "2011-03-24"
                },
                "reasonCode": [
                    {
                        "coding": [
                            {
                                "system": "urn:oid:1.2.840.114350.1.13.0.1.7.2.728286",
                                "code": "160383",
                                "display": "Med Refill"
                            }
                        ],
                        "text": "Med Refill"
                    }
                ],
                "location": [
                    {
                        "location": {
                            "reference": "Location/e4W4rmGe9QzuGm2Dy4NBqVc0KDe6yGld6HW95UuN-Qd03",
                            "display": "EMC Family Medicine"
                        }
                    }
                ]
            },
            "search": {
                "mode": "match"
            }
        },
        {
            "link": [
                {
                    "relation": "self",
                    "url": "https://appmarket.epic.com/interconnect-amcurprd-oauth/api/FHIR/R4/Encounter/eV0-DzuMop4ZwpDQ3SQq8cQ3"
                }
            ],
            "fullUrl": "https://appmarket.epic.com/interconnect-amcurprd-oauth/api/FHIR/R4/Encounter/eV0-DzuMop4ZwpDQ3SQq8cQ3",
            "resource": {
                "resourceType": "Encounter",
                "id": "eV0-DzuMop4ZwpDQ3SQq8cQ3",
                "identifier": [
                    {
                        "use": "usual",
                        "system": "urn:oid:1.2.840.114350.1.13.0.1.7.3.698084.8",
                        "value": "500"
                    }
                ],
                "status": "unknown",
                "class": {
                    "system": "urn:oid:1.2.840.114350.1.72.1.7.7.10.696784.13260",
                    "code": "13",
                    "display": "Support OP Encounter"
                },
                "subject": {
                    "reference": "Patient/e5rIBf2NPDop-ql3grzUdvw3",
                    "display": "Beacon, Emily"
                },
                "participant": [
                    {
                        "individual": {
                            "reference": "Practitioner/eM5CWtq15N0WJeuCet5bJlQ3",
                            "type": "Practitioner",
                            "display": "Physician Family Medicine, MD"
                        }
                    }
                ],
                "period": {
                    "start": "2011-01-09",
                    "end": "2011-01-09"
                }
            },
            "search": {
                "mode": "match"
            }
        },
        {
            "link": [
                {
                    "relation": "self",
                    "url": "https://appmarket.epic.com/interconnect-amcurprd-oauth/api/FHIR/R4/Encounter/e7xsn1a6-.X.V32U26i6bQw3"
                }
            ],
            "fullUrl": "https://appmarket.epic.com/interconnect-amcurprd-oauth/api/FHIR/R4/Encounter/e7xsn1a6-.X.V32U26i6bQw3",
            "resource": {
                "resourceType": "Encounter",
                "id": "e7xsn1a6-.X.V32U26i6bQw3",
                "identifier": [
                    {
                        "use": "usual",
                        "system": "urn:oid:1.2.840.114350.1.13.0.1.7.3.698084.8",
                        "value": "501"
                    }
                ],
                "status": "unknown",
                "class": {
                    "system": "urn:oid:1.2.840.114350.1.72.1.7.7.10.696784.13260",
                    "code": "13",
                    "display": "Support OP Encounter"
                },
                "subject": {
                    "reference": "Patient/e5rIBf2NPDop-ql3grzUdvw3",
                    "display": "Beacon, Emily"
                },
                "participant": [
                    {
                        "individual": {
                            "reference": "Practitioner/eM5CWtq15N0WJeuCet5bJlQ3",
                            "type": "Practitioner",
                            "display": "Physician Family Medicine, MD"
                        }
                    }
                ],
                "period": {
                    "start": "2011-01-09",
                    "end": "2011-01-09"
                }
            },
            "search": {
                "mode": "match"
            }
        },
        {
            "link": [
                {
                    "relation": "self",
                    "url": "https://appmarket.epic.com/interconnect-amcurprd-oauth/api/FHIR/R4/Encounter/eOPFhf1AzvTagVrSk4fCx8Q3"
                }
            ],
            "fullUrl": "https://appmarket.epic.com/interconnect-amcurprd-oauth/api/FHIR/R4/Encounter/eOPFhf1AzvTagVrSk4fCx8Q3",
            "resource": {
                "resourceType": "Encounter",
                "id": "eOPFhf1AzvTagVrSk4fCx8Q3",
                "identifier": [
                    {
                        "use": "usual",
                        "system": "urn:oid:1.2.840.114350.1.13.0.1.7.3.698084.8",
                        "value": "502"
                    }
                ],
                "status": "unknown",
                "class": {
                    "system": "urn:oid:1.2.840.114350.1.72.1.7.7.10.696784.13260",
                    "code": "13",
                    "display": "Support OP Encounter"
                },
                "subject": {
                    "reference": "Patient/e5rIBf2NPDop-ql3grzUdvw3",
                    "display": "Beacon, Emily"
                },
                "participant": [
                    {
                        "individual": {
                            "reference": "Practitioner/eM5CWtq15N0WJeuCet5bJlQ3",
                            "type": "Practitioner",
                            "display": "Physician Family Medicine, MD"
                        }
                    }
                ],
                "period": {
                    "start": "2010-12-10",
                    "end": "2010-12-10"
                }
            },
            "search": {
                "mode": "match"
            }
        },
        {
            "link": [
                {
                    "relation": "self",
                    "url": "https://appmarket.epic.com/interconnect-amcurprd-oauth/api/FHIR/R4/Encounter/eptnZsf2RBBjXNbENDW9Psg3"
                }
            ],
            "fullUrl": "https://appmarket.epic.com/interconnect-amcurprd-oauth/api/FHIR/R4/Encounter/eptnZsf2RBBjXNbENDW9Psg3",
            "resource": {
                "resourceType": "Encounter",
                "id": "eptnZsf2RBBjXNbENDW9Psg3",
                "identifier": [
                    {
                        "use": "usual",
                        "system": "urn:oid:1.2.840.114350.1.13.0.1.7.3.698084.8",
                        "value": "503"
                    }
                ],
                "status": "unknown",
                "class": {
                    "system": "urn:oid:1.2.840.114350.1.72.1.7.7.10.696784.13260",
                    "code": "13",
                    "display": "Support OP Encounter"
                },
                "subject": {
                    "reference": "Patient/e5rIBf2NPDop-ql3grzUdvw3",
                    "display": "Beacon, Emily"
                },
                "participant": [
                    {
                        "individual": {
                            "reference": "Practitioner/eM5CWtq15N0WJeuCet5bJlQ3",
                            "type": "Practitioner",
                            "display": "Physician Family Medicine, MD"
                        }
                    }
                ],
                "period": {
                    "start": "2010-10-11",
                    "end": "2010-10-11"
                }
            },
            "search": {
                "mode": "match"
            }
        },
        {
            "link": [
                {
                    "relation": "self",
                    "url": "https://appmarket.epic.com/interconnect-amcurprd-oauth/api/FHIR/R4/Encounter/eEan32YDE-PcKAmivOTn3fg3"
                }
            ],
            "fullUrl": "https://appmarket.epic.com/interconnect-amcurprd-oauth/api/FHIR/R4/Encounter/eEan32YDE-PcKAmivOTn3fg3",
            "resource": {
                "resourceType": "Encounter",
                "id": "eEan32YDE-PcKAmivOTn3fg3",
                "identifier": [
                    {
                        "use": "usual",
                        "system": "urn:oid:1.2.840.114350.1.13.0.1.7.3.698084.8",
                        "value": "504"
                    }
                ],
                "status": "unknown",
                "class": {
                    "system": "urn:oid:1.2.840.114350.1.72.1.7.7.10.696784.13260",
                    "code": "13",
                    "display": "Support OP Encounter"
                },
                "subject": {
                    "reference": "Patient/e5rIBf2NPDop-ql3grzUdvw3",
                    "display": "Beacon, Emily"
                },
                "participant": [
                    {
                        "individual": {
                            "reference": "Practitioner/eM5CWtq15N0WJeuCet5bJlQ3",
                            "type": "Practitioner",
                            "display": "Physician Family Medicine, MD"
                        }
                    }
                ],
                "period": {
                    "start": "2010-06-14",
                    "end": "2010-06-14"
                }
            },
            "search": {
                "mode": "match"
            }
        },
        {
            "link": [
                {
                    "relation": "self",
                    "url": "https://appmarket.epic.com/interconnect-amcurprd-oauth/api/FHIR/R4/Encounter/eKR8KRBC05IQRft3d4V7bGQ3"
                }
            ],
            "fullUrl": "https://appmarket.epic.com/interconnect-amcurprd-oauth/api/FHIR/R4/Encounter/eKR8KRBC05IQRft3d4V7bGQ3",
            "resource": {
                "resourceType": "Encounter",
                "id": "eKR8KRBC05IQRft3d4V7bGQ3",
                "identifier": [
                    {
                        "use": "usual",
                        "system": "urn:oid:1.2.840.114350.1.13.0.1.7.3.698084.8",
                        "value": "506"
                    }
                ],
                "status": "arrived",
                "class": {
                    "system": "urn:oid:1.2.840.114350.1.72.1.7.7.10.696784.13260",
                    "code": "5",
                    "display": "Appointment"
                },
                "type": [
                    {
                        "coding": [
                            {
                                "system": "urn:oid:1.2.840.114350.1.13.0.1.7.10.698084.30",
                                "code": "101",
                                "display": "Office Visit"
                            }
                        ],
                        "text": "Office Visit"
                    },
                    {
                        "coding": [
                            {
                                "system": "urn:oid:1.2.840.114350.1.13.0.1.7.2.808267",
                                "code": "1004",
                                "display": "Office Visit"
                            }
                        ],
                        "text": "Office Visit"
                    }
                ],
                "subject": {
                    "reference": "Patient/e5rIBf2NPDop-ql3grzUdvw3",
                    "display": "Beacon, Emily"
                },
                "participant": [
                    {
                        "period": {
                            "start": "2010-03-22T16:30:00Z",
                            "end": "2010-03-22T16:45:00Z"
                        },
                        "individual": {
                            "reference": "Practitioner/eM5CWtq15N0WJeuCet5bJlQ3",
                            "display": "Physician Family Medicine, MD"
                        }
                    }
                ],
                "period": {
                    "start": "2010-03-22T16:30:00Z",
                    "end": "2010-03-22T16:45:00Z"
                },
                "reasonCode": [
                    {
                        "coding": [
                            {
                                "system": "urn:oid:1.2.840.114350.1.13.0.1.7.2.728286",
                                "code": "83",
                                "display": "Annual Exam"
                            }
                        ],
                        "text": "Annual Exam"
                    }
                ],
                "location": [
                    {
                        "location": {
                            "reference": "Location/e4W4rmGe9QzuGm2Dy4NBqVc0KDe6yGld6HW95UuN-Qd03",
                            "display": "EMC Family Medicine"
                        }
                    }
                ]
            },
            "search": {
                "mode": "match"
            }
        },
        {
            "link": [
                {
                    "relation": "self",
                    "url": "https://appmarket.epic.com/interconnect-amcurprd-oauth/api/FHIR/R4/Encounter/eB57jb2qf8pUVs5PhANfvMQ3"
                }
            ],
            "fullUrl": "https://appmarket.epic.com/interconnect-amcurprd-oauth/api/FHIR/R4/Encounter/eB57jb2qf8pUVs5PhANfvMQ3",
            "resource": {
                "resourceType": "Encounter",
                "id": "eB57jb2qf8pUVs5PhANfvMQ3",
                "identifier": [
                    {
                        "use": "usual",
                        "system": "urn:oid:1.2.840.114350.1.13.0.1.7.3.698084.8",
                        "value": "507"
                    }
                ],
                "status": "unknown",
                "class": {
                    "system": "urn:oid:1.2.840.114350.1.72.1.7.7.10.696784.13260",
                    "code": "13",
                    "display": "Support OP Encounter"
                },
                "subject": {
                    "reference": "Patient/e5rIBf2NPDop-ql3grzUdvw3",
                    "display": "Beacon, Emily"
                },
                "participant": [
                    {
                        "individual": {
                            "reference": "Practitioner/eM5CWtq15N0WJeuCet5bJlQ3",
                            "type": "Practitioner",
                            "display": "Physician Family Medicine, MD"
                        }
                    }
                ],
                "period": {
                    "start": "2009-10-15",
                    "end": "2009-10-15"
                }
            },
            "search": {
                "mode": "match"
            }
        },
        {
            "link": [
                {
                    "relation": "self",
                    "url": "https://appmarket.epic.com/interconnect-amcurprd-oauth/api/FHIR/R4/Encounter/emBCzALK93NNzYGmgbcyAhA3"
                }
            ],
            "fullUrl": "https://appmarket.epic.com/interconnect-amcurprd-oauth/api/FHIR/R4/Encounter/emBCzALK93NNzYGmgbcyAhA3",
            "resource": {
                "resourceType": "Encounter",
                "id": "emBCzALK93NNzYGmgbcyAhA3",
                "identifier": [
                    {
                        "use": "usual",
                        "system": "urn:oid:1.2.840.114350.1.13.0.1.7.3.698084.8",
                        "value": "508"
                    }
                ],
                "status": "unknown",
                "class": {
                    "system": "urn:oid:1.2.840.114350.1.72.1.7.7.10.696784.13260",
                    "code": "13",
                    "display": "Support OP Encounter"
                },
                "subject": {
                    "reference": "Patient/e5rIBf2NPDop-ql3grzUdvw3",
                    "display": "Beacon, Emily"
                },
                "participant": [
                    {
                        "individual": {
                            "reference": "Practitioner/eM5CWtq15N0WJeuCet5bJlQ3",
                            "type": "Practitioner",
                            "display": "Physician Family Medicine, MD"
                        }
                    }
                ],
                "period": {
                    "start": "2009-06-12",
                    "end": "2009-06-12"
                }
            },
            "search": {
                "mode": "match"
            }
        },
        {
            "link": [
                {
                    "relation": "self",
                    "url": "https://appmarket.epic.com/interconnect-amcurprd-oauth/api/FHIR/R4/Encounter/eabyfazWyqqzaka7GW2kPlQ3"
                }
            ],
            "fullUrl": "https://appmarket.epic.com/interconnect-amcurprd-oauth/api/FHIR/R4/Encounter/eabyfazWyqqzaka7GW2kPlQ3",
            "resource": {
                "resourceType": "Encounter",
                "id": "eabyfazWyqqzaka7GW2kPlQ3",
                "identifier": [
                    {
                        "use": "usual",
                        "system": "urn:oid:1.2.840.114350.1.13.0.1.7.3.698084.8",
                        "value": "509"
                    }
                ],
                "status": "unknown",
                "class": {
                    "system": "urn:oid:1.2.840.114350.1.72.1.7.7.10.696784.13260",
                    "code": "13",
                    "display": "Support OP Encounter"
                },
                "subject": {
                    "reference": "Patient/e5rIBf2NPDop-ql3grzUdvw3",
                    "display": "Beacon, Emily"
                },
                "participant": [
                    {
                        "individual": {
                            "reference": "Practitioner/eM5CWtq15N0WJeuCet5bJlQ3",
                            "type": "Practitioner",
                            "display": "Physician Family Medicine, MD"
                        }
                    }
                ],
                "period": {
                    "start": "2009-05-03",
                    "end": "2009-05-03"
                }
            },
            "search": {
                "mode": "match"
            }
        },
        {
            "link": [
                {
                    "relation": "self",
                    "url": "https://appmarket.epic.com/interconnect-amcurprd-oauth/api/FHIR/R4/Encounter/ejROdEdHVsHkBaJl82QvvPw3"
                }
            ],
            "fullUrl": "https://appmarket.epic.com/interconnect-amcurprd-oauth/api/FHIR/R4/Encounter/ejROdEdHVsHkBaJl82QvvPw3",
            "resource": {
                "resourceType": "Encounter",
                "id": "ejROdEdHVsHkBaJl82QvvPw3",
                "identifier": [
                    {
                        "use": "usual",
                        "system": "urn:oid:1.2.840.114350.1.13.0.1.7.3.698084.8",
                        "value": "510"
                    }
                ],
                "status": "arrived",
                "class": {
                    "system": "urn:oid:1.2.840.114350.1.72.1.7.7.10.696784.13260",
                    "code": "5",
                    "display": "Appointment"
                },
                "type": [
                    {
                        "coding": [
                            {
                                "system": "urn:oid:1.2.840.114350.1.13.0.1.7.10.698084.30",
                                "code": "101",
                                "display": "Office Visit"
                            }
                        ],
                        "text": "Office Visit"
                    },
                    {
                        "coding": [
                            {
                                "system": "urn:oid:1.2.840.114350.1.13.0.1.7.2.808267",
                                "code": "1004",
                                "display": "Office Visit"
                            }
                        ],
                        "text": "Office Visit"
                    }
                ],
                "subject": {
                    "reference": "Patient/e5rIBf2NPDop-ql3grzUdvw3",
                    "display": "Beacon, Emily"
                },
                "participant": [
                    {
                        "period": {
                            "start": "2009-03-23T16:15:00Z",
                            "end": "2009-03-23T16:30:00Z"
                        },
                        "individual": {
                            "reference": "Practitioner/eM5CWtq15N0WJeuCet5bJlQ3",
                            "display": "Physician Family Medicine, MD"
                        }
                    }
                ],
                "period": {
                    "start": "2009-03-23T16:15:00Z",
                    "end": "2009-03-23T16:30:00Z"
                },
                "reasonCode": [
                    {
                        "coding": [
                            {
                                "system": "urn:oid:1.2.840.114350.1.13.0.1.7.2.728286",
                                "code": "83",
                                "display": "Annual Exam"
                            }
                        ],
                        "text": "Annual Exam"
                    }
                ],
                "location": [
                    {
                        "location": {
                            "reference": "Location/e4W4rmGe9QzuGm2Dy4NBqVc0KDe6yGld6HW95UuN-Qd03",
                            "display": "EMC Family Medicine"
                        }
                    }
                ]
            },
            "search": {
                "mode": "match"
            }
        },
        {
            "link": [
                {
                    "relation": "self",
                    "url": "https://appmarket.epic.com/interconnect-amcurprd-oauth/api/FHIR/R4/Encounter/evxlFEQhQMDWziAAIBhehLg3"
                }
            ],
            "fullUrl": "https://appmarket.epic.com/interconnect-amcurprd-oauth/api/FHIR/R4/Encounter/evxlFEQhQMDWziAAIBhehLg3",
            "resource": {
                "resourceType": "Encounter",
                "id": "evxlFEQhQMDWziAAIBhehLg3",
                "identifier": [
                    {
                        "use": "usual",
                        "system": "urn:oid:1.2.840.114350.1.13.0.1.7.3.698084.8",
                        "value": "511"
                    }
                ],
                "status": "unknown",
                "class": {
                    "system": "urn:oid:1.2.840.114350.1.72.1.7.7.10.696784.13260",
                    "code": "13",
                    "display": "Support OP Encounter"
                },
                "subject": {
                    "reference": "Patient/e5rIBf2NPDop-ql3grzUdvw3",
                    "display": "Beacon, Emily"
                },
                "participant": [
                    {
                        "individual": {
                            "reference": "Practitioner/eM5CWtq15N0WJeuCet5bJlQ3",
                            "type": "Practitioner",
                            "display": "Physician Family Medicine, MD"
                        }
                    }
                ],
                "period": {
                    "start": "2008-10-13",
                    "end": "2008-10-13"
                }
            },
            "search": {
                "mode": "match"
            }
        },
        {
            "link": [
                {
                    "relation": "self",
                    "url": "https://appmarket.epic.com/interconnect-amcurprd-oauth/api/FHIR/R4/Encounter/e1RaMqEyaoV0XiUunyxh.DQ3"
                }
            ],
            "fullUrl": "https://appmarket.epic.com/interconnect-amcurprd-oauth/api/FHIR/R4/Encounter/e1RaMqEyaoV0XiUunyxh.DQ3",
            "resource": {
                "resourceType": "Encounter",
                "id": "e1RaMqEyaoV0XiUunyxh.DQ3",
                "identifier": [
                    {
                        "use": "usual",
                        "system": "urn:oid:1.2.840.114350.1.13.0.1.7.3.698084.8",
                        "value": "512"
                    }
                ],
                "status": "unknown",
                "class": {
                    "system": "urn:oid:1.2.840.114350.1.72.1.7.7.10.696784.13260",
                    "code": "13",
                    "display": "Support OP Encounter"
                },
                "subject": {
                    "reference": "Patient/e5rIBf2NPDop-ql3grzUdvw3",
                    "display": "Beacon, Emily"
                },
                "participant": [
                    {
                        "individual": {
                            "reference": "Practitioner/eM5CWtq15N0WJeuCet5bJlQ3",
                            "type": "Practitioner",
                            "display": "Physician Family Medicine, MD"
                        }
                    }
                ],
                "period": {
                    "start": "2008-09-03",
                    "end": "2008-09-03"
                }
            },
            "search": {
                "mode": "match"
            }
        },
        {
            "link": [
                {
                    "relation": "self",
                    "url": "https://appmarket.epic.com/interconnect-amcurprd-oauth/api/FHIR/R4/Encounter/e4uCnTlj59ucpPEBSfp360w3"
                }
            ],
            "fullUrl": "https://appmarket.epic.com/interconnect-amcurprd-oauth/api/FHIR/R4/Encounter/e4uCnTlj59ucpPEBSfp360w3",
            "resource": {
                "resourceType": "Encounter",
                "id": "e4uCnTlj59ucpPEBSfp360w3",
                "identifier": [
                    {
                        "use": "usual",
                        "system": "urn:oid:1.2.840.114350.1.13.0.1.7.3.698084.8",
                        "value": "513"
                    }
                ],
                "status": "unknown",
                "class": {
                    "system": "urn:oid:1.2.840.114350.1.72.1.7.7.10.696784.13260",
                    "code": "13",
                    "display": "Support OP Encounter"
                },
                "subject": {
                    "reference": "Patient/e5rIBf2NPDop-ql3grzUdvw3",
                    "display": "Beacon, Emily"
                },
                "participant": [
                    {
                        "individual": {
                            "reference": "Practitioner/eM5CWtq15N0WJeuCet5bJlQ3",
                            "type": "Practitioner",
                            "display": "Physician Family Medicine, MD"
                        }
                    }
                ],
                "period": {
                    "start": "2008-05-01",
                    "end": "2008-05-01"
                }
            },
            "search": {
                "mode": "match"
            }
        },
        {
            "link": [
                {
                    "relation": "self",
                    "url": "https://appmarket.epic.com/interconnect-amcurprd-oauth/api/FHIR/R4/Encounter/ewVuoXFUpDepbteXH8YDrEg3"
                }
            ],
            "fullUrl": "https://appmarket.epic.com/interconnect-amcurprd-oauth/api/FHIR/R4/Encounter/ewVuoXFUpDepbteXH8YDrEg3",
            "resource": {
                "resourceType": "Encounter",
                "id": "ewVuoXFUpDepbteXH8YDrEg3",
                "identifier": [
                    {
                        "use": "usual",
                        "system": "urn:oid:1.2.840.114350.1.13.0.1.7.3.698084.8",
                        "value": "514"
                    }
                ],
                "status": "unknown",
                "class": {
                    "system": "urn:oid:1.2.840.114350.1.72.1.7.7.10.696784.13260",
                    "code": "13",
                    "display": "Support OP Encounter"
                },
                "subject": {
                    "reference": "Patient/e5rIBf2NPDop-ql3grzUdvw3",
                    "display": "Beacon, Emily"
                },
                "participant": [
                    {
                        "individual": {
                            "reference": "Practitioner/eM5CWtq15N0WJeuCet5bJlQ3",
                            "type": "Practitioner",
                            "display": "Physician Family Medicine, MD"
                        }
                    }
                ],
                "period": {
                    "start": "2008-05-01",
                    "end": "2008-05-01"
                }
            },
            "search": {
                "mode": "match"
            }
        },
        {
            "link": [
                {
                    "relation": "self",
                    "url": "https://appmarket.epic.com/interconnect-amcurprd-oauth/api/FHIR/R4/Encounter/ev2YLvDroZ3tVebPX8b6WUg3"
                }
            ],
            "fullUrl": "https://appmarket.epic.com/interconnect-amcurprd-oauth/api/FHIR/R4/Encounter/ev2YLvDroZ3tVebPX8b6WUg3",
            "resource": {
                "resourceType": "Encounter",
                "id": "ev2YLvDroZ3tVebPX8b6WUg3",
                "identifier": [
                    {
                        "use": "usual",
                        "system": "urn:oid:1.2.840.114350.1.13.0.1.7.3.698084.8",
                        "value": "515"
                    }
                ],
                "status": "arrived",
                "class": {
                    "system": "urn:oid:1.2.840.114350.1.72.1.7.7.10.696784.13260",
                    "code": "5",
                    "display": "Appointment"
                },
                "type": [
                    {
                        "coding": [
                            {
                                "system": "urn:oid:1.2.840.114350.1.13.0.1.7.10.698084.30",
                                "code": "101",
                                "display": "Office Visit"
                            }
                        ],
                        "text": "Office Visit"
                    },
                    {
                        "coding": [
                            {
                                "system": "urn:oid:1.2.840.114350.1.13.0.1.7.2.808267",
                                "code": "1004",
                                "display": "Office Visit"
                            }
                        ],
                        "text": "Office Visit"
                    }
                ],
                "subject": {
                    "reference": "Patient/e5rIBf2NPDop-ql3grzUdvw3",
                    "display": "Beacon, Emily"
                },
                "participant": [
                    {
                        "period": {
                            "start": "2008-04-26T20:45:00Z",
                            "end": "2008-04-26T21:00:00Z"
                        },
                        "individual": {
                            "reference": "Practitioner/eM5CWtq15N0WJeuCet5bJlQ3",
                            "display": "Physician Family Medicine, MD"
                        }
                    }
                ],
                "period": {
                    "start": "2008-04-26T20:45:00Z",
                    "end": "2008-04-26T21:00:00Z"
                },
                "reasonCode": [
                    {
                        "coding": [
                            {
                                "system": "urn:oid:1.2.840.114350.1.13.0.1.7.2.728286",
                                "code": "83",
                                "display": "Annual Exam"
                            }
                        ],
                        "text": "Annual Exam"
                    }
                ],
                "location": [
                    {
                        "location": {
                            "reference": "Location/e4W4rmGe9QzuGm2Dy4NBqVc0KDe6yGld6HW95UuN-Qd03",
                            "display": "EMC Family Medicine"
                        }
                    }
                ]
            },
            "search": {
                "mode": "match"
            }
        },
        {
            "link": [
                {
                    "relation": "self",
                    "url": "https://appmarket.epic.com/interconnect-amcurprd-oauth/api/FHIR/R4/Encounter/eb0mNiSw75.w-d-0tur-RSA3"
                }
            ],
            "fullUrl": "https://appmarket.epic.com/interconnect-amcurprd-oauth/api/FHIR/R4/Encounter/eb0mNiSw75.w-d-0tur-RSA3",
            "resource": {
                "resourceType": "Encounter",
                "id": "eb0mNiSw75.w-d-0tur-RSA3",
                "identifier": [
                    {
                        "use": "usual",
                        "system": "urn:oid:1.2.840.114350.1.13.0.1.7.3.698084.8",
                        "value": "516"
                    }
                ],
                "status": "unknown",
                "class": {
                    "system": "urn:oid:1.2.840.114350.1.72.1.7.7.10.696784.13260",
                    "code": "13",
                    "display": "Support OP Encounter"
                },
                "subject": {
                    "reference": "Patient/e5rIBf2NPDop-ql3grzUdvw3",
                    "display": "Beacon, Emily"
                },
                "participant": [
                    {
                        "individual": {
                            "reference": "Practitioner/eM5CWtq15N0WJeuCet5bJlQ3",
                            "type": "Practitioner",
                            "display": "Physician Family Medicine, MD"
                        }
                    }
                ],
                "period": {
                    "start": "2007-09-02",
                    "end": "2007-09-02"
                }
            },
            "search": {
                "mode": "match"
            }
        },
        {
            "link": [
                {
                    "relation": "self",
                    "url": "https://appmarket.epic.com/interconnect-amcurprd-oauth/api/FHIR/R4/Encounter/eEDhY3MghlK.FlidPH3PwpA3"
                }
            ],
            "fullUrl": "https://appmarket.epic.com/interconnect-amcurprd-oauth/api/FHIR/R4/Encounter/eEDhY3MghlK.FlidPH3PwpA3",
            "resource": {
                "resourceType": "Encounter",
                "id": "eEDhY3MghlK.FlidPH3PwpA3",
                "identifier": [
                    {
                        "use": "usual",
                        "system": "urn:oid:1.2.840.114350.1.13.0.1.7.3.698084.8",
                        "value": "517"
                    }
                ],
                "status": "unknown",
                "class": {
                    "system": "urn:oid:1.2.840.114350.1.72.1.7.7.10.696784.13260",
                    "code": "13",
                    "display": "Support OP Encounter"
                },
                "subject": {
                    "reference": "Patient/e5rIBf2NPDop-ql3grzUdvw3",
                    "display": "Beacon, Emily"
                },
                "participant": [
                    {
                        "individual": {
                            "reference": "Practitioner/eM5CWtq15N0WJeuCet5bJlQ3",
                            "type": "Practitioner",
                            "display": "Physician Family Medicine, MD"
                        }
                    }
                ],
                "period": {
                    "start": "2007-09-02",
                    "end": "2007-09-02"
                }
            },
            "search": {
                "mode": "match"
            }
        },
        {
            "link": [
                {
                    "relation": "self",
                    "url": "https://appmarket.epic.com/interconnect-amcurprd-oauth/api/FHIR/R4/Encounter/ehQFOP04U3kz0dUmrpAsqpQ3"
                }
            ],
            "fullUrl": "https://appmarket.epic.com/interconnect-amcurprd-oauth/api/FHIR/R4/Encounter/ehQFOP04U3kz0dUmrpAsqpQ3",
            "resource": {
                "resourceType": "Encounter",
                "id": "ehQFOP04U3kz0dUmrpAsqpQ3",
                "identifier": [
                    {
                        "use": "usual",
                        "system": "urn:oid:1.2.840.114350.1.13.0.1.7.3.698084.8",
                        "value": "519"
                    }
                ],
                "status": "arrived",
                "class": {
                    "system": "urn:oid:1.2.840.114350.1.72.1.7.7.10.696784.13260",
                    "code": "5",
                    "display": "Appointment"
                },
                "type": [
                    {
                        "coding": [
                            {
                                "system": "urn:oid:1.2.840.114350.1.13.0.1.7.10.698084.30",
                                "code": "101",
                                "display": "Office Visit"
                            }
                        ],
                        "text": "Office Visit"
                    },
                    {
                        "coding": [
                            {
                                "system": "urn:oid:1.2.840.114350.1.13.0.1.7.2.808267",
                                "code": "1004",
                                "display": "Office Visit"
                            }
                        ],
                        "text": "Office Visit"
                    }
                ],
                "subject": {
                    "reference": "Patient/e5rIBf2NPDop-ql3grzUdvw3",
                    "display": "Beacon, Emily"
                },
                "participant": [
                    {
                        "period": {
                            "start": "2007-06-01T20:15:00Z",
                            "end": "2007-06-01T20:30:00Z"
                        },
                        "individual": {
                            "reference": "Practitioner/eM5CWtq15N0WJeuCet5bJlQ3",
                            "display": "Physician Family Medicine, MD"
                        }
                    }
                ],
                "period": {
                    "start": "2007-06-01T20:15:00Z",
                    "end": "2007-06-01T20:30:00Z"
                },
                "reasonCode": [
                    {
                        "coding": [
                            {
                                "system": "urn:oid:1.2.840.114350.1.13.0.1.7.2.728286",
                                "code": "1410000014",
                                "display": "UTI"
                            }
                        ],
                        "text": "UTI"
                    }
                ],
                "location": [
                    {
                        "location": {
                            "reference": "Location/e4W4rmGe9QzuGm2Dy4NBqVc0KDe6yGld6HW95UuN-Qd03",
                            "display": "EMC Family Medicine"
                        }
                    }
                ]
            },
            "search": {
                "mode": "match"
            }
        },
        {
            "link": [
                {
                    "relation": "self",
                    "url": "https://appmarket.epic.com/interconnect-amcurprd-oauth/api/FHIR/R4/Encounter/eTRCbNkQppwSoHBun913CDA3"
                }
            ],
            "fullUrl": "https://appmarket.epic.com/interconnect-amcurprd-oauth/api/FHIR/R4/Encounter/eTRCbNkQppwSoHBun913CDA3",
            "resource": {
                "resourceType": "Encounter",
                "id": "eTRCbNkQppwSoHBun913CDA3",
                "identifier": [
                    {
                        "use": "usual",
                        "system": "urn:oid:1.2.840.114350.1.13.0.1.7.3.698084.8",
                        "value": "520"
                    }
                ],
                "status": "finished",
                "class": {
                    "system": "urn:oid:1.2.840.114350.1.72.1.7.7.10.696784.13260",
                    "code": "13",
                    "display": "Support OP Encounter"
                },
                "type": [
                    {
                        "coding": [
                            {
                                "system": "urn:oid:1.2.840.114350.1.13.0.1.7.10.698084.30",
                                "code": "70",
                                "display": "Telephone"
                            }
                        ],
                        "text": "Telephone"
                    }
                ],
                "subject": {
                    "reference": "Patient/e5rIBf2NPDop-ql3grzUdvw3",
                    "display": "Beacon, Emily"
                },
                "period": {
                    "start": "2007-05-31",
                    "end": "2007-05-31"
                },
                "reasonCode": [
                    {
                        "coding": [
                            {
                                "system": "urn:oid:1.2.840.114350.1.13.0.1.7.2.728286",
                                "code": "1410000014",
                                "display": "UTI"
                            }
                        ],
                        "text": "UTI"
                    }
                ],
                "location": [
                    {
                        "location": {
                            "reference": "Location/e4W4rmGe9QzuGm2Dy4NBqVc0KDe6yGld6HW95UuN-Qd03",
                            "display": "EMC Family Medicine"
                        }
                    }
                ]
            },
            "search": {
                "mode": "match"
            }
        },
        {
            "link": [
                {
                    "relation": "self",
                    "url": "https://appmarket.epic.com/interconnect-amcurprd-oauth/api/FHIR/R4/Encounter/etofNFcS3L0tAJMoqVRoPxw3"
                }
            ],
            "fullUrl": "https://appmarket.epic.com/interconnect-amcurprd-oauth/api/FHIR/R4/Encounter/etofNFcS3L0tAJMoqVRoPxw3",
            "resource": {
                "resourceType": "Encounter",
                "id": "etofNFcS3L0tAJMoqVRoPxw3",
                "identifier": [
                    {
                        "use": "usual",
                        "system": "urn:oid:1.2.840.114350.1.13.0.1.7.3.698084.8",
                        "value": "521"
                    }
                ],
                "status": "arrived",
                "class": {
                    "system": "urn:oid:1.2.840.114350.1.72.1.7.7.10.696784.13260",
                    "code": "5",
                    "display": "Appointment"
                },
                "type": [
                    {
                        "coding": [
                            {
                                "system": "urn:oid:1.2.840.114350.1.13.0.1.7.10.698084.30",
                                "code": "101",
                                "display": "Office Visit"
                            }
                        ],
                        "text": "Office Visit"
                    },
                    {
                        "coding": [
                            {
                                "system": "urn:oid:1.2.840.114350.1.13.0.1.7.2.808267",
                                "code": "1004",
                                "display": "Office Visit"
                            }
                        ],
                        "text": "Office Visit"
                    }
                ],
                "subject": {
                    "reference": "Patient/e5rIBf2NPDop-ql3grzUdvw3",
                    "display": "Beacon, Emily"
                },
                "participant": [
                    {
                        "period": {
                            "start": "2007-05-11T20:00:00Z",
                            "end": "2007-05-11T20:15:00Z"
                        },
                        "individual": {
                            "reference": "Practitioner/eM5CWtq15N0WJeuCet5bJlQ3",
                            "display": "Physician Family Medicine, MD"
                        }
                    }
                ],
                "period": {
                    "start": "2007-05-11T20:00:00Z",
                    "end": "2007-05-11T20:15:00Z"
                },
                "reasonCode": [
                    {
                        "coding": [
                            {
                                "system": "urn:oid:1.2.840.114350.1.13.0.1.7.2.728286",
                                "code": "83",
                                "display": "Annual Exam"
                            }
                        ],
                        "text": "Annual Exam"
                    }
                ],
                "location": [
                    {
                        "location": {
                            "reference": "Location/e4W4rmGe9QzuGm2Dy4NBqVc0KDe6yGld6HW95UuN-Qd03",
                            "display": "EMC Family Medicine"
                        }
                    }
                ]
            },
            "search": {
                "mode": "match"
            }
        },
        {
            "link": [
                {
                    "relation": "self",
                    "url": "https://appmarket.epic.com/interconnect-amcurprd-oauth/api/FHIR/R4/Encounter/eszzOumTX-aWK1qRNSXr0Eg3"
                }
            ],
            "fullUrl": "https://appmarket.epic.com/interconnect-amcurprd-oauth/api/FHIR/R4/Encounter/eszzOumTX-aWK1qRNSXr0Eg3",
            "resource": {
                "resourceType": "Encounter",
                "id": "eszzOumTX-aWK1qRNSXr0Eg3",
                "identifier": [
                    {
                        "use": "usual",
                        "system": "urn:oid:1.2.840.114350.1.13.0.1.7.3.698084.8",
                        "value": "522"
                    }
                ],
                "status": "unknown",
                "class": {
                    "system": "urn:oid:1.2.840.114350.1.72.1.7.7.10.696784.13260",
                    "code": "13",
                    "display": "Support OP Encounter"
                },
                "subject": {
                    "reference": "Patient/e5rIBf2NPDop-ql3grzUdvw3",
                    "display": "Beacon, Emily"
                },
                "period": {
                    "start": "2007-05-03",
                    "end": "2007-05-03"
                }
            },
            "search": {
                "mode": "match"
            }
        },
        {
            "link": [
                {
                    "relation": "self",
                    "url": "https://appmarket.epic.com/interconnect-amcurprd-oauth/api/FHIR/R4/Encounter/eqmRYlszxmMjKvbJJXKh4eg3"
                }
            ],
            "fullUrl": "https://appmarket.epic.com/interconnect-amcurprd-oauth/api/FHIR/R4/Encounter/eqmRYlszxmMjKvbJJXKh4eg3",
            "resource": {
                "resourceType": "Encounter",
                "id": "eqmRYlszxmMjKvbJJXKh4eg3",
                "identifier": [
                    {
                        "use": "usual",
                        "system": "urn:oid:1.2.840.114350.1.13.0.1.7.3.698084.8",
                        "value": "523"
                    }
                ],
                "status": "unknown",
                "class": {
                    "system": "urn:oid:1.2.840.114350.1.72.1.7.7.10.696784.13260",
                    "code": "13",
                    "display": "Support OP Encounter"
                },
                "subject": {
                    "reference": "Patient/e5rIBf2NPDop-ql3grzUdvw3",
                    "display": "Beacon, Emily"
                },
                "period": {
                    "start": "2006-09-03",
                    "end": "2006-09-03"
                }
            },
            "search": {
                "mode": "match"
            }
        },
        {
            "link": [
                {
                    "relation": "self",
                    "url": "https://appmarket.epic.com/interconnect-amcurprd-oauth/api/FHIR/R4/Encounter/eV2wehETsChnv1vhbtFdSJg3"
                }
            ],
            "fullUrl": "https://appmarket.epic.com/interconnect-amcurprd-oauth/api/FHIR/R4/Encounter/eV2wehETsChnv1vhbtFdSJg3",
            "resource": {
                "resourceType": "Encounter",
                "id": "eV2wehETsChnv1vhbtFdSJg3",
                "identifier": [
                    {
                        "use": "usual",
                        "system": "urn:oid:1.2.840.114350.1.13.0.1.7.3.698084.8",
                        "value": "524"
                    }
                ],
                "status": "arrived",
                "class": {
                    "system": "urn:oid:1.2.840.114350.1.72.1.7.7.10.696784.13260",
                    "code": "5",
                    "display": "Appointment"
                },
                "type": [
                    {
                        "coding": [
                            {
                                "system": "urn:oid:1.2.840.114350.1.13.0.1.7.10.698084.30",
                                "code": "101",
                                "display": "Office Visit"
                            }
                        ],
                        "text": "Office Visit"
                    },
                    {
                        "coding": [
                            {
                                "system": "urn:oid:1.2.840.114350.1.13.0.1.7.2.808267",
                                "code": "1004",
                                "display": "Office Visit"
                            }
                        ],
                        "text": "Office Visit"
                    }
                ],
                "subject": {
                    "reference": "Patient/e5rIBf2NPDop-ql3grzUdvw3",
                    "display": "Beacon, Emily"
                },
                "participant": [
                    {
                        "period": {
                            "start": "2006-07-31T19:45:00Z",
                            "end": "2006-07-31T20:00:00Z"
                        },
                        "individual": {
                            "reference": "Practitioner/eM5CWtq15N0WJeuCet5bJlQ3",
                            "display": "Physician Family Medicine, MD"
                        }
                    }
                ],
                "period": {
                    "start": "2006-07-31T19:45:00Z",
                    "end": "2006-07-31T20:00:00Z"
                },
                "reasonCode": [
                    {
                        "coding": [
                            {
                                "system": "urn:oid:1.2.840.114350.1.13.0.1.7.2.728286",
                                "code": "115",
                                "display": "URI"
                            }
                        ],
                        "text": "URI"
                    }
                ],
                "location": [
                    {
                        "location": {
                            "reference": "Location/e4W4rmGe9QzuGm2Dy4NBqVc0KDe6yGld6HW95UuN-Qd03",
                            "display": "EMC Family Medicine"
                        }
                    }
                ]
            },
            "search": {
                "mode": "match"
            }
        },
        {
            "link": [
                {
                    "relation": "self",
                    "url": "https://appmarket.epic.com/interconnect-amcurprd-oauth/api/FHIR/R4/Encounter/eJGBasImN0mCko6FotSncUw3"
                }
            ],
            "fullUrl": "https://appmarket.epic.com/interconnect-amcurprd-oauth/api/FHIR/R4/Encounter/eJGBasImN0mCko6FotSncUw3",
            "resource": {
                "resourceType": "Encounter",
                "id": "eJGBasImN0mCko6FotSncUw3",
                "identifier": [
                    {
                        "use": "usual",
                        "system": "urn:oid:1.2.840.114350.1.13.0.1.7.3.698084.8",
                        "value": "525"
                    }
                ],
                "status": "unknown",
                "class": {
                    "system": "urn:oid:1.2.840.114350.1.72.1.7.7.10.696784.13260",
                    "code": "13",
                    "display": "Support OP Encounter"
                },
                "subject": {
                    "reference": "Patient/e5rIBf2NPDop-ql3grzUdvw3",
                    "display": "Beacon, Emily"
                },
                "period": {
                    "start": "2006-06-06",
                    "end": "2006-06-06"
                }
            },
            "search": {
                "mode": "match"
            }
        },
        {
            "link": [
                {
                    "relation": "self",
                    "url": "https://appmarket.epic.com/interconnect-amcurprd-oauth/api/FHIR/R4/Encounter/e1MeiieneV7EkeiJIkCnmKw3"
                }
            ],
            "fullUrl": "https://appmarket.epic.com/interconnect-amcurprd-oauth/api/FHIR/R4/Encounter/e1MeiieneV7EkeiJIkCnmKw3",
            "resource": {
                "resourceType": "Encounter",
                "id": "e1MeiieneV7EkeiJIkCnmKw3",
                "identifier": [
                    {
                        "use": "usual",
                        "system": "urn:oid:1.2.840.114350.1.13.0.1.7.3.698084.8",
                        "value": "526"
                    }
                ],
                "status": "arrived",
                "class": {
                    "system": "urn:oid:1.2.840.114350.1.72.1.7.7.10.696784.13260",
                    "code": "5",
                    "display": "Appointment"
                },
                "type": [
                    {
                        "coding": [
                            {
                                "system": "urn:oid:1.2.840.114350.1.13.0.1.7.10.698084.30",
                                "code": "101",
                                "display": "Office Visit"
                            }
                        ],
                        "text": "Office Visit"
                    },
                    {
                        "coding": [
                            {
                                "system": "urn:oid:1.2.840.114350.1.13.0.1.7.2.808267",
                                "code": "1004",
                                "display": "Office Visit"
                            }
                        ],
                        "text": "Office Visit"
                    }
                ],
                "subject": {
                    "reference": "Patient/e5rIBf2NPDop-ql3grzUdvw3",
                    "display": "Beacon, Emily"
                },
                "participant": [
                    {
                        "period": {
                            "start": "2006-05-18T19:30:00Z",
                            "end": "2006-05-18T19:45:00Z"
                        },
                        "individual": {
                            "reference": "Practitioner/eM5CWtq15N0WJeuCet5bJlQ3",
                            "display": "Physician Family Medicine, MD"
                        }
                    }
                ],
                "period": {
                    "start": "2006-05-18T19:30:00Z",
                    "end": "2006-05-18T19:45:00Z"
                },
                "reasonCode": [
                    {
                        "coding": [
                            {
                                "system": "urn:oid:1.2.840.114350.1.13.0.1.7.2.728286",
                                "code": "83",
                                "display": "Annual Exam"
                            }
                        ],
                        "text": "Annual Exam"
                    }
                ],
                "location": [
                    {
                        "location": {
                            "reference": "Location/e4W4rmGe9QzuGm2Dy4NBqVc0KDe6yGld6HW95UuN-Qd03",
                            "display": "EMC Family Medicine"
                        }
                    }
                ]
            },
            "search": {
                "mode": "match"
            }
        },
        {
            "link": [
                {
                    "relation": "self",
                    "url": "https://appmarket.epic.com/interconnect-amcurprd-oauth/api/FHIR/R4/Encounter/eDV4g3oj5F-Y3GqRkL.26wA3"
                }
            ],
            "fullUrl": "https://appmarket.epic.com/interconnect-amcurprd-oauth/api/FHIR/R4/Encounter/eDV4g3oj5F-Y3GqRkL.26wA3",
            "resource": {
                "resourceType": "Encounter",
                "id": "eDV4g3oj5F-Y3GqRkL.26wA3",
                "identifier": [
                    {
                        "use": "usual",
                        "system": "urn:oid:1.2.840.114350.1.13.0.1.7.3.698084.8",
                        "value": "527"
                    }
                ],
                "status": "finished",
                "class": {
                    "system": "urn:oid:1.2.840.114350.1.72.1.7.7.10.696784.13260",
                    "code": "13",
                    "display": "Support OP Encounter"
                },
                "type": [
                    {
                        "coding": [
                            {
                                "system": "urn:oid:1.2.840.114350.1.13.0.1.7.10.698084.30",
                                "code": "107",
                                "display": "Refill"
                            }
                        ],
                        "text": "Refill"
                    }
                ],
                "subject": {
                    "reference": "Patient/e5rIBf2NPDop-ql3grzUdvw3",
                    "display": "Beacon, Emily"
                },
                "period": {
                    "start": "2006-04-08",
                    "end": "2006-04-08"
                },
                "reasonCode": [
                    {
                        "coding": [
                            {
                                "system": "urn:oid:1.2.840.114350.1.13.0.1.7.2.728286",
                                "code": "160383",
                                "display": "Med Refill"
                            }
                        ],
                        "text": "Med Refill"
                    }
                ],
                "location": [
                    {
                        "location": {
                            "reference": "Location/e4W4rmGe9QzuGm2Dy4NBqVc0KDe6yGld6HW95UuN-Qd03",
                            "display": "EMC Family Medicine"
                        }
                    }
                ]
            },
            "search": {
                "mode": "match"
            }
        },
        {
            "link": [
                {
                    "relation": "self",
                    "url": "https://appmarket.epic.com/interconnect-amcurprd-oauth/api/FHIR/R4/Encounter/evKTNzgVXzCgurV9yv2Y.MQ3"
                }
            ],
            "fullUrl": "https://appmarket.epic.com/interconnect-amcurprd-oauth/api/FHIR/R4/Encounter/evKTNzgVXzCgurV9yv2Y.MQ3",
            "resource": {
                "resourceType": "Encounter",
                "id": "evKTNzgVXzCgurV9yv2Y.MQ3",
                "identifier": [
                    {
                        "use": "usual",
                        "system": "urn:oid:1.2.840.114350.1.13.0.1.7.3.698084.8",
                        "value": "528"
                    }
                ],
                "status": "unknown",
                "class": {
                    "system": "urn:oid:1.2.840.114350.1.72.1.7.7.10.696784.13260",
                    "code": "13",
                    "display": "Support OP Encounter"
                },
                "subject": {
                    "reference": "Patient/e5rIBf2NPDop-ql3grzUdvw3",
                    "display": "Beacon, Emily"
                },
                "period": {
                    "start": "2005-10-07",
                    "end": "2005-10-07"
                }
            },
            "search": {
                "mode": "match"
            }
        },
        {
            "link": [
                {
                    "relation": "self",
                    "url": "https://appmarket.epic.com/interconnect-amcurprd-oauth/api/FHIR/R4/Encounter/efGWFonqaBJwbvYUI91j6Gg3"
                }
            ],
            "fullUrl": "https://appmarket.epic.com/interconnect-amcurprd-oauth/api/FHIR/R4/Encounter/efGWFonqaBJwbvYUI91j6Gg3",
            "resource": {
                "resourceType": "Encounter",
                "id": "efGWFonqaBJwbvYUI91j6Gg3",
                "identifier": [
                    {
                        "use": "usual",
                        "system": "urn:oid:1.2.840.114350.1.13.0.1.7.3.698084.8",
                        "value": "529"
                    }
                ],
                "status": "unknown",
                "class": {
                    "system": "urn:oid:1.2.840.114350.1.72.1.7.7.10.696784.13260",
                    "code": "13",
                    "display": "Support OP Encounter"
                },
                "subject": {
                    "reference": "Patient/e5rIBf2NPDop-ql3grzUdvw3",
                    "display": "Beacon, Emily"
                },
                "period": {
                    "start": "2005-07-11",
                    "end": "2005-07-11"
                }
            },
            "search": {
                "mode": "match"
            }
        },
        {
            "link": [
                {
                    "relation": "self",
                    "url": "https://appmarket.epic.com/interconnect-amcurprd-oauth/api/FHIR/R4/Encounter/eNQZTUSzpgmrSGwLP9SmPLw3"
                }
            ],
            "fullUrl": "https://appmarket.epic.com/interconnect-amcurprd-oauth/api/FHIR/R4/Encounter/eNQZTUSzpgmrSGwLP9SmPLw3",
            "resource": {
                "resourceType": "Encounter",
                "id": "eNQZTUSzpgmrSGwLP9SmPLw3",
                "identifier": [
                    {
                        "use": "usual",
                        "system": "urn:oid:1.2.840.114350.1.13.0.1.7.3.698084.8",
                        "value": "530"
                    }
                ],
                "status": "unknown",
                "class": {
                    "system": "urn:oid:1.2.840.114350.1.72.1.7.7.10.696784.13260",
                    "code": "13",
                    "display": "Support OP Encounter"
                },
                "subject": {
                    "reference": "Patient/e5rIBf2NPDop-ql3grzUdvw3",
                    "display": "Beacon, Emily"
                },
                "period": {
                    "start": "2005-07-11",
                    "end": "2005-07-11"
                }
            },
            "search": {
                "mode": "match"
            }
        },
        {
            "link": [
                {
                    "relation": "self",
                    "url": "https://appmarket.epic.com/interconnect-amcurprd-oauth/api/FHIR/R4/Encounter/eMMmhVhrECc5mltY5OwjkwA3"
                }
            ],
            "fullUrl": "https://appmarket.epic.com/interconnect-amcurprd-oauth/api/FHIR/R4/Encounter/eMMmhVhrECc5mltY5OwjkwA3",
            "resource": {
                "resourceType": "Encounter",
                "id": "eMMmhVhrECc5mltY5OwjkwA3",
                "identifier": [
                    {
                        "use": "usual",
                        "system": "urn:oid:1.2.840.114350.1.13.0.1.7.3.698084.8",
                        "value": "531"
                    }
                ],
                "status": "unknown",
                "class": {
                    "system": "urn:oid:1.2.840.114350.1.72.1.7.7.10.696784.13260",
                    "code": "13",
                    "display": "Support OP Encounter"
                },
                "subject": {
                    "reference": "Patient/e5rIBf2NPDop-ql3grzUdvw3",
                    "display": "Beacon, Emily"
                },
                "period": {
                    "start": "2005-07-10",
                    "end": "2005-07-10"
                }
            },
            "search": {
                "mode": "match"
            }
        },
        {
            "link": [
                {
                    "relation": "self",
                    "url": "https://appmarket.epic.com/interconnect-amcurprd-oauth/api/FHIR/R4/Encounter/eZtwy0eqK98AOoqdwihnwEg3"
                }
            ],
            "fullUrl": "https://appmarket.epic.com/interconnect-amcurprd-oauth/api/FHIR/R4/Encounter/eZtwy0eqK98AOoqdwihnwEg3",
            "resource": {
                "resourceType": "Encounter",
                "id": "eZtwy0eqK98AOoqdwihnwEg3",
                "identifier": [
                    {
                        "use": "usual",
                        "system": "urn:oid:1.2.840.114350.1.13.0.1.7.3.698084.8",
                        "value": "532"
                    }
                ],
                "status": "unknown",
                "class": {
                    "system": "urn:oid:1.2.840.114350.1.72.1.7.7.10.696784.13260",
                    "code": "13",
                    "display": "Support OP Encounter"
                },
                "subject": {
                    "reference": "Patient/e5rIBf2NPDop-ql3grzUdvw3",
                    "display": "Beacon, Emily"
                },
                "period": {
                    "start": "2005-06-20",
                    "end": "2005-06-20"
                }
            },
            "search": {
                "mode": "match"
            }
        },
        {
            "link": [
                {
                    "relation": "self",
                    "url": "https://appmarket.epic.com/interconnect-amcurprd-oauth/api/FHIR/R4/Encounter/eu40tY95xMfxXQTh4qffPgQ3"
                }
            ],
            "fullUrl": "https://appmarket.epic.com/interconnect-amcurprd-oauth/api/FHIR/R4/Encounter/eu40tY95xMfxXQTh4qffPgQ3",
            "resource": {
                "resourceType": "Encounter",
                "id": "eu40tY95xMfxXQTh4qffPgQ3",
                "identifier": [
                    {
                        "use": "usual",
                        "system": "urn:oid:1.2.840.114350.1.13.0.1.7.3.698084.8",
                        "value": "533"
                    }
                ],
                "status": "arrived",
                "class": {
                    "system": "urn:oid:1.2.840.114350.1.72.1.7.7.10.696784.13260",
                    "code": "5",
                    "display": "Appointment"
                },
                "type": [
                    {
                        "coding": [
                            {
                                "system": "urn:oid:1.2.840.114350.1.13.0.1.7.10.698084.30",
                                "code": "101",
                                "display": "Office Visit"
                            }
                        ],
                        "text": "Office Visit"
                    },
                    {
                        "coding": [
                            {
                                "system": "urn:oid:1.2.840.114350.1.13.0.1.7.2.808267",
                                "code": "1004",
                                "display": "Office Visit"
                            }
                        ],
                        "text": "Office Visit"
                    }
                ],
                "subject": {
                    "reference": "Patient/e5rIBf2NPDop-ql3grzUdvw3",
                    "display": "Beacon, Emily"
                },
                "participant": [
                    {
                        "period": {
                            "start": "2005-04-23T21:30:00Z",
                            "end": "2005-04-23T21:45:00Z"
                        },
                        "individual": {
                            "reference": "Practitioner/eM5CWtq15N0WJeuCet5bJlQ3",
                            "display": "Physician Family Medicine, MD"
                        }
                    }
                ],
                "period": {
                    "start": "2005-04-23T21:30:00Z",
                    "end": "2005-04-23T21:45:00Z"
                },
                "reasonCode": [
                    {
                        "coding": [
                            {
                                "system": "urn:oid:1.2.840.114350.1.13.0.1.7.2.728286",
                                "code": "83",
                                "display": "Annual Exam"
                            }
                        ],
                        "text": "Annual Exam"
                    }
                ],
                "location": [
                    {
                        "location": {
                            "reference": "Location/e4W4rmGe9QzuGm2Dy4NBqVc0KDe6yGld6HW95UuN-Qd03",
                            "display": "EMC Family Medicine"
                        }
                    }
                ]
            },
            "search": {
                "mode": "match"
            }
        },
        {
            "link": [
                {
                    "relation": "self",
                    "url": "https://appmarket.epic.com/interconnect-amcurprd-oauth/api/FHIR/R4/Encounter/eXHtsqed7QjvacoARksPnAQ3"
                }
            ],
            "fullUrl": "https://appmarket.epic.com/interconnect-amcurprd-oauth/api/FHIR/R4/Encounter/eXHtsqed7QjvacoARksPnAQ3",
            "resource": {
                "resourceType": "Encounter",
                "id": "eXHtsqed7QjvacoARksPnAQ3",
                "identifier": [
                    {
                        "use": "usual",
                        "system": "urn:oid:1.2.840.114350.1.13.0.1.7.3.698084.8",
                        "value": "534"
                    }
                ],
                "status": "unknown",
                "class": {
                    "system": "urn:oid:1.2.840.114350.1.72.1.7.7.10.696784.13260",
                    "code": "13",
                    "display": "Support OP Encounter"
                },
                "subject": {
                    "reference": "Patient/e5rIBf2NPDop-ql3grzUdvw3",
                    "display": "Beacon, Emily"
                },
                "period": {
                    "start": "2004-11-11",
                    "end": "2004-11-11"
                }
            },
            "search": {
                "mode": "match"
            }
        },
        {
            "link": [
                {
                    "relation": "self",
                    "url": "https://appmarket.epic.com/interconnect-amcurprd-oauth/api/FHIR/R4/Encounter/e-EVvM-M05Mz9zDb7oDLU3A3"
                }
            ],
            "fullUrl": "https://appmarket.epic.com/interconnect-amcurprd-oauth/api/FHIR/R4/Encounter/e-EVvM-M05Mz9zDb7oDLU3A3",
            "resource": {
                "resourceType": "Encounter",
                "id": "e-EVvM-M05Mz9zDb7oDLU3A3",
                "identifier": [
                    {
                        "use": "usual",
                        "system": "urn:oid:1.2.840.114350.1.13.0.1.7.3.698084.8",
                        "value": "535"
                    }
                ],
                "status": "unknown",
                "class": {
                    "system": "urn:oid:1.2.840.114350.1.72.1.7.7.10.696784.13260",
                    "code": "13",
                    "display": "Support OP Encounter"
                },
                "subject": {
                    "reference": "Patient/e5rIBf2NPDop-ql3grzUdvw3",
                    "display": "Beacon, Emily"
                },
                "period": {
                    "start": "2004-11-11",
                    "end": "2004-11-11"
                }
            },
            "search": {
                "mode": "match"
            }
        },
        {
            "link": [
                {
                    "relation": "self",
                    "url": "https://appmarket.epic.com/interconnect-amcurprd-oauth/api/FHIR/R4/Encounter/eRc6jjG3QDF078mfa-X4YCw3"
                }
            ],
            "fullUrl": "https://appmarket.epic.com/interconnect-amcurprd-oauth/api/FHIR/R4/Encounter/eRc6jjG3QDF078mfa-X4YCw3",
            "resource": {
                "resourceType": "Encounter",
                "id": "eRc6jjG3QDF078mfa-X4YCw3",
                "identifier": [
                    {
                        "use": "usual",
                        "system": "urn:oid:1.2.840.114350.1.13.0.1.7.3.698084.8",
                        "value": "536"
                    }
                ],
                "status": "unknown",
                "class": {
                    "system": "urn:oid:1.2.840.114350.1.72.1.7.7.10.696784.13260",
                    "code": "13",
                    "display": "Support OP Encounter"
                },
                "subject": {
                    "reference": "Patient/e5rIBf2NPDop-ql3grzUdvw3",
                    "display": "Beacon, Emily"
                },
                "period": {
                    "start": "2004-11-10",
                    "end": "2004-11-10"
                }
            },
            "search": {
                "mode": "match"
            }
        },
        {
            "link": [
                {
                    "relation": "self",
                    "url": "https://appmarket.epic.com/interconnect-amcurprd-oauth/api/FHIR/R4/Encounter/egl5UhXgH2rEkZStvWZYjyw3"
                }
            ],
            "fullUrl": "https://appmarket.epic.com/interconnect-amcurprd-oauth/api/FHIR/R4/Encounter/egl5UhXgH2rEkZStvWZYjyw3",
            "resource": {
                "resourceType": "Encounter",
                "id": "egl5UhXgH2rEkZStvWZYjyw3",
                "identifier": [
                    {
                        "use": "usual",
                        "system": "urn:oid:1.2.840.114350.1.13.0.1.7.3.698084.8",
                        "value": "537"
                    }
                ],
                "status": "unknown",
                "class": {
                    "system": "urn:oid:1.2.840.114350.1.72.1.7.7.10.696784.13260",
                    "code": "13",
                    "display": "Support OP Encounter"
                },
                "subject": {
                    "reference": "Patient/e5rIBf2NPDop-ql3grzUdvw3",
                    "display": "Beacon, Emily"
                },
                "period": {
                    "start": "2004-10-21",
                    "end": "2004-10-21"
                }
            },
            "search": {
                "mode": "match"
            }
        },
        {
            "link": [
                {
                    "relation": "self",
                    "url": "https://appmarket.epic.com/interconnect-amcurprd-oauth/api/FHIR/R4/Encounter/eE9NQol0BA7-W.1wdk3u2Rg3"
                }
            ],
            "fullUrl": "https://appmarket.epic.com/interconnect-amcurprd-oauth/api/FHIR/R4/Encounter/eE9NQol0BA7-W.1wdk3u2Rg3",
            "resource": {
                "resourceType": "Encounter",
                "id": "eE9NQol0BA7-W.1wdk3u2Rg3",
                "identifier": [
                    {
                        "use": "usual",
                        "system": "urn:oid:1.2.840.114350.1.13.0.1.7.3.698084.8",
                        "value": "538"
                    }
                ],
                "status": "unknown",
                "class": {
                    "system": "urn:oid:1.2.840.114350.1.72.1.7.7.10.696784.13260",
                    "code": "13",
                    "display": "Support OP Encounter"
                },
                "subject": {
                    "reference": "Patient/e5rIBf2NPDop-ql3grzUdvw3",
                    "display": "Beacon, Emily"
                },
                "period": {
                    "start": "2004-09-09",
                    "end": "2004-09-09"
                }
            },
            "search": {
                "mode": "match"
            }
        },
        {
            "link": [
                {
                    "relation": "self",
                    "url": "https://appmarket.epic.com/interconnect-amcurprd-oauth/api/FHIR/R4/Encounter/eA4g8ZrB-urYcFuVfEUWpPg3"
                }
            ],
            "fullUrl": "https://appmarket.epic.com/interconnect-amcurprd-oauth/api/FHIR/R4/Encounter/eA4g8ZrB-urYcFuVfEUWpPg3",
            "resource": {
                "resourceType": "Encounter",
                "id": "eA4g8ZrB-urYcFuVfEUWpPg3",
                "identifier": [
                    {
                        "use": "usual",
                        "system": "urn:oid:1.2.840.114350.1.13.0.1.7.3.698084.8",
                        "value": "539"
                    }
                ],
                "status": "unknown",
                "class": {
                    "system": "urn:oid:1.2.840.114350.1.72.1.7.7.10.696784.13260",
                    "code": "13",
                    "display": "Support OP Encounter"
                },
                "subject": {
                    "reference": "Patient/e5rIBf2NPDop-ql3grzUdvw3",
                    "display": "Beacon, Emily"
                },
                "period": {
                    "start": "2004-06-27",
                    "end": "2004-06-27"
                }
            },
            "search": {
                "mode": "match"
            }
        },
        {
            "link": [
                {
                    "relation": "self",
                    "url": "https://appmarket.epic.com/interconnect-amcurprd-oauth/api/FHIR/R4/Encounter/ep8AciUH3wyJkQ8aHH4i0yQ3"
                }
            ],
            "fullUrl": "https://appmarket.epic.com/interconnect-amcurprd-oauth/api/FHIR/R4/Encounter/ep8AciUH3wyJkQ8aHH4i0yQ3",
            "resource": {
                "resourceType": "Encounter",
                "id": "ep8AciUH3wyJkQ8aHH4i0yQ3",
                "identifier": [
                    {
                        "use": "usual",
                        "system": "urn:oid:1.2.840.114350.1.13.0.1.7.3.698084.8",
                        "value": "540"
                    }
                ],
                "status": "unknown",
                "class": {
                    "system": "urn:oid:1.2.840.114350.1.72.1.7.7.10.696784.13260",
                    "code": "13",
                    "display": "Support OP Encounter"
                },
                "subject": {
                    "reference": "Patient/e5rIBf2NPDop-ql3grzUdvw3",
                    "display": "Beacon, Emily"
                },
                "period": {
                    "start": "2004-05-18",
                    "end": "2004-05-18"
                }
            },
            "search": {
                "mode": "match"
            }
        },
        {
            "link": [
                {
                    "relation": "self",
                    "url": "https://appmarket.epic.com/interconnect-amcurprd-oauth/api/FHIR/R4/Encounter/efrmKVFF4E.RrXY5RQUAeAg3"
                }
            ],
            "fullUrl": "https://appmarket.epic.com/interconnect-amcurprd-oauth/api/FHIR/R4/Encounter/efrmKVFF4E.RrXY5RQUAeAg3",
            "resource": {
                "resourceType": "Encounter",
                "id": "efrmKVFF4E.RrXY5RQUAeAg3",
                "identifier": [
                    {
                        "use": "usual",
                        "system": "urn:oid:1.2.840.114350.1.13.0.1.7.3.698084.8",
                        "value": "541"
                    }
                ],
                "status": "arrived",
                "class": {
                    "system": "urn:oid:1.2.840.114350.1.72.1.7.7.10.696784.13260",
                    "code": "5",
                    "display": "Appointment"
                },
                "type": [
                    {
                        "coding": [
                            {
                                "system": "urn:oid:1.2.840.114350.1.13.0.1.7.10.698084.30",
                                "code": "101",
                                "display": "Office Visit"
                            }
                        ],
                        "text": "Office Visit"
                    },
                    {
                        "coding": [
                            {
                                "system": "urn:oid:1.2.840.114350.1.13.0.1.7.2.808267",
                                "code": "1004",
                                "display": "Office Visit"
                            }
                        ],
                        "text": "Office Visit"
                    }
                ],
                "subject": {
                    "reference": "Patient/e5rIBf2NPDop-ql3grzUdvw3",
                    "display": "Beacon, Emily"
                },
                "participant": [
                    {
                        "period": {
                            "start": "2004-04-23T21:15:00Z",
                            "end": "2004-04-23T21:30:00Z"
                        },
                        "individual": {
                            "reference": "Practitioner/eM5CWtq15N0WJeuCet5bJlQ3",
                            "display": "Physician Family Medicine, MD"
                        }
                    }
                ],
                "period": {
                    "start": "2004-04-23T21:15:00Z",
                    "end": "2004-04-23T21:30:00Z"
                },
                "reasonCode": [
                    {
                        "coding": [
                            {
                                "system": "urn:oid:1.2.840.114350.1.13.0.1.7.2.728286",
                                "code": "83",
                                "display": "Annual Exam"
                            }
                        ],
                        "text": "Annual Exam"
                    }
                ],
                "location": [
                    {
                        "location": {
                            "reference": "Location/e4W4rmGe9QzuGm2Dy4NBqVc0KDe6yGld6HW95UuN-Qd03",
                            "display": "EMC Family Medicine"
                        }
                    }
                ]
            },
            "search": {
                "mode": "match"
            }
        },
        {
            "link": [
                {
                    "relation": "self",
                    "url": "https://appmarket.epic.com/interconnect-amcurprd-oauth/api/FHIR/R4/Encounter/eol3XYjT-irknwihnB.2Y4Q3"
                }
            ],
            "fullUrl": "https://appmarket.epic.com/interconnect-amcurprd-oauth/api/FHIR/R4/Encounter/eol3XYjT-irknwihnB.2Y4Q3",
            "resource": {
                "resourceType": "Encounter",
                "id": "eol3XYjT-irknwihnB.2Y4Q3",
                "identifier": [
                    {
                        "use": "usual",
                        "system": "urn:oid:1.2.840.114350.1.13.0.1.7.3.698084.8",
                        "value": "542"
                    }
                ],
                "status": "unknown",
                "class": {
                    "system": "urn:oid:1.2.840.114350.1.72.1.7.7.10.696784.13260",
                    "code": "13",
                    "display": "Support OP Encounter"
                },
                "subject": {
                    "reference": "Patient/e5rIBf2NPDop-ql3grzUdvw3",
                    "display": "Beacon, Emily"
                },
                "period": {
                    "start": "2004-01-11",
                    "end": "2004-01-11"
                }
            },
            "search": {
                "mode": "match"
            }
        },
        {
            "link": [
                {
                    "relation": "self",
                    "url": "https://appmarket.epic.com/interconnect-amcurprd-oauth/api/FHIR/R4/Encounter/eUQuRqT9LuB6x8Fb3XwqTCw3"
                }
            ],
            "fullUrl": "https://appmarket.epic.com/interconnect-amcurprd-oauth/api/FHIR/R4/Encounter/eUQuRqT9LuB6x8Fb3XwqTCw3",
            "resource": {
                "resourceType": "Encounter",
                "id": "eUQuRqT9LuB6x8Fb3XwqTCw3",
                "identifier": [
                    {
                        "use": "usual",
                        "system": "urn:oid:1.2.840.114350.1.13.0.1.7.3.698084.8",
                        "value": "543"
                    }
                ],
                "status": "unknown",
                "class": {
                    "system": "urn:oid:1.2.840.114350.1.72.1.7.7.10.696784.13260",
                    "code": "13",
                    "display": "Support OP Encounter"
                },
                "subject": {
                    "reference": "Patient/e5rIBf2NPDop-ql3grzUdvw3",
                    "display": "Beacon, Emily"
                },
                "period": {
                    "start": "2003-10-29",
                    "end": "2003-10-29"
                }
            },
            "search": {
                "mode": "match"
            }
        },
        {
            "link": [
                {
                    "relation": "self",
                    "url": "https://appmarket.epic.com/interconnect-amcurprd-oauth/api/FHIR/R4/Encounter/eLDpoUUyZrS5kuaTQPz78eA3"
                }
            ],
            "fullUrl": "https://appmarket.epic.com/interconnect-amcurprd-oauth/api/FHIR/R4/Encounter/eLDpoUUyZrS5kuaTQPz78eA3",
            "resource": {
                "resourceType": "Encounter",
                "id": "eLDpoUUyZrS5kuaTQPz78eA3",
                "identifier": [
                    {
                        "use": "usual",
                        "system": "urn:oid:1.2.840.114350.1.13.0.1.7.3.698084.8",
                        "value": "544"
                    }
                ],
                "status": "unknown",
                "class": {
                    "system": "urn:oid:1.2.840.114350.1.72.1.7.7.10.696784.13260",
                    "code": "13",
                    "display": "Support OP Encounter"
                },
                "subject": {
                    "reference": "Patient/e5rIBf2NPDop-ql3grzUdvw3",
                    "display": "Beacon, Emily"
                },
                "period": {
                    "start": "2003-09-19",
                    "end": "2003-09-19"
                }
            },
            "search": {
                "mode": "match"
            }
        },
        {
            "link": [
                {
                    "relation": "self",
                    "url": "https://appmarket.epic.com/interconnect-amcurprd-oauth/api/FHIR/R4/Encounter/ehtncPMgC4eVEzw8ymFQPog3"
                }
            ],
            "fullUrl": "https://appmarket.epic.com/interconnect-amcurprd-oauth/api/FHIR/R4/Encounter/ehtncPMgC4eVEzw8ymFQPog3",
            "resource": {
                "resourceType": "Encounter",
                "id": "ehtncPMgC4eVEzw8ymFQPog3",
                "identifier": [
                    {
                        "use": "usual",
                        "system": "urn:oid:1.2.840.114350.1.13.0.1.7.3.698084.8",
                        "value": "545"
                    }
                ],
                "status": "unknown",
                "class": {
                    "system": "urn:oid:1.2.840.114350.1.72.1.7.7.10.696784.13260",
                    "code": "13",
                    "display": "Support OP Encounter"
                },
                "subject": {
                    "reference": "Patient/e5rIBf2NPDop-ql3grzUdvw3",
                    "display": "Beacon, Emily"
                },
                "period": {
                    "start": "2003-06-03",
                    "end": "2003-06-03"
                }
            },
            "search": {
                "mode": "match"
            }
        },
        {
            "link": [
                {
                    "relation": "self",
                    "url": "https://appmarket.epic.com/interconnect-amcurprd-oauth/api/FHIR/R4/Encounter/ehRAbAHm7tvY6B894HQoGRg3"
                }
            ],
            "fullUrl": "https://appmarket.epic.com/interconnect-amcurprd-oauth/api/FHIR/R4/Encounter/ehRAbAHm7tvY6B894HQoGRg3",
            "resource": {
                "resourceType": "Encounter",
                "id": "ehRAbAHm7tvY6B894HQoGRg3",
                "identifier": [
                    {
                        "use": "usual",
                        "system": "urn:oid:1.2.840.114350.1.13.0.1.7.3.698084.8",
                        "value": "547"
                    }
                ],
                "status": "arrived",
                "class": {
                    "system": "urn:oid:1.2.840.114350.1.72.1.7.7.10.696784.13260",
                    "code": "5",
                    "display": "Appointment"
                },
                "type": [
                    {
                        "coding": [
                            {
                                "system": "urn:oid:1.2.840.114350.1.13.0.1.7.10.698084.30",
                                "code": "101",
                                "display": "Office Visit"
                            }
                        ],
                        "text": "Office Visit"
                    },
                    {
                        "coding": [
                            {
                                "system": "urn:oid:1.2.840.114350.1.13.0.1.7.2.808267",
                                "code": "1004",
                                "display": "Office Visit"
                            }
                        ],
                        "text": "Office Visit"
                    }
                ],
                "subject": {
                    "reference": "Patient/e5rIBf2NPDop-ql3grzUdvw3",
                    "display": "Beacon, Emily"
                },
                "participant": [
                    {
                        "period": {
                            "start": "2003-04-29T20:30:00Z",
                            "end": "2003-04-29T20:45:00Z"
                        },
                        "individual": {
                            "reference": "Practitioner/eM5CWtq15N0WJeuCet5bJlQ3",
                            "display": "Physician Family Medicine, MD"
                        }
                    }
                ],
                "period": {
                    "start": "2003-04-29T20:30:00Z",
                    "end": "2003-04-29T20:45:00Z"
                },
                "reasonCode": [
                    {
                        "coding": [
                            {
                                "system": "urn:oid:1.2.840.114350.1.13.0.1.7.2.728286",
                                "code": "42",
                                "display": "Establish Care"
                            }
                        ],
                        "text": "Establish Care"
                    },
                    {
                        "coding": [
                            {
                                "system": "urn:oid:1.2.840.114350.1.13.0.1.7.2.728286",
                                "code": "83",
                                "display": "Annual Exam"
                            }
                        ],
                        "text": "Annual Exam"
                    }
                ],
                "location": [
                    {
                        "location": {
                            "reference": "Location/e4W4rmGe9QzuGm2Dy4NBqVc0KDe6yGld6HW95UuN-Qd03",
                            "display": "EMC Family Medicine"
                        }
                    }
                ]
            },
            "search": {
                "mode": "match"
            }
        },
        {
            "link": [
                {
                    "relation": "self",
                    "url": "https://appmarket.epic.com/interconnect-amcurprd-oauth/api/FHIR/R4/Encounter/eOyuQcRVtX7EH3Grv8SaNnA3"
                }
            ],
            "fullUrl": "https://appmarket.epic.com/interconnect-amcurprd-oauth/api/FHIR/R4/Encounter/eOyuQcRVtX7EH3Grv8SaNnA3",
            "resource": {
                "resourceType": "Encounter",
                "id": "eOyuQcRVtX7EH3Grv8SaNnA3",
                "identifier": [
                    {
                        "use": "usual",
                        "system": "urn:oid:1.2.840.114350.1.13.0.1.7.3.698084.8",
                        "value": "549"
                    }
                ],
                "status": "unknown",
                "class": {
                    "system": "urn:oid:1.2.840.114350.1.72.1.7.7.10.696784.13260",
                    "code": "13",
                    "display": "Support OP Encounter"
                },
                "subject": {
                    "reference": "Patient/e5rIBf2NPDop-ql3grzUdvw3",
                    "display": "Beacon, Emily"
                },
                "period": {
                    "start": "2002-10-04",
                    "end": "2002-10-04"
                }
            },
            "search": {
                "mode": "match"
            }
        },
        {
            "link": [
                {
                    "relation": "self",
                    "url": "https://appmarket.epic.com/interconnect-amcurprd-oauth/api/FHIR/R4/Encounter/en3qbPEEXGmCUamN8R7Grag3"
                }
            ],
            "fullUrl": "https://appmarket.epic.com/interconnect-amcurprd-oauth/api/FHIR/R4/Encounter/en3qbPEEXGmCUamN8R7Grag3",
            "resource": {
                "resourceType": "Encounter",
                "id": "en3qbPEEXGmCUamN8R7Grag3",
                "identifier": [
                    {
                        "use": "usual",
                        "system": "urn:oid:1.2.840.114350.1.13.0.1.7.3.698084.8",
                        "value": "550"
                    }
                ],
                "status": "unknown",
                "class": {
                    "system": "urn:oid:1.2.840.114350.1.72.1.7.7.10.696784.13260",
                    "code": "13",
                    "display": "Support OP Encounter"
                },
                "subject": {
                    "reference": "Patient/e5rIBf2NPDop-ql3grzUdvw3",
                    "display": "Beacon, Emily"
                },
                "period": {
                    "start": "2002-06-03",
                    "end": "2002-06-03"
                }
            },
            "search": {
                "mode": "match"
            }
        },
        {
            "link": [
                {
                    "relation": "self",
                    "url": "https://appmarket.epic.com/interconnect-amcurprd-oauth/api/FHIR/R4/Encounter/em649arZxOhkrCdlhb-VCGg3"
                }
            ],
            "fullUrl": "https://appmarket.epic.com/interconnect-amcurprd-oauth/api/FHIR/R4/Encounter/em649arZxOhkrCdlhb-VCGg3",
            "resource": {
                "resourceType": "Encounter",
                "id": "em649arZxOhkrCdlhb-VCGg3",
                "identifier": [
                    {
                        "use": "usual",
                        "system": "urn:oid:1.2.840.114350.1.13.0.1.7.3.698084.8",
                        "value": "551"
                    }
                ],
                "status": "unknown",
                "class": {
                    "system": "urn:oid:1.2.840.114350.1.72.1.7.7.10.696784.13260",
                    "code": "13",
                    "display": "Support OP Encounter"
                },
                "subject": {
                    "reference": "Patient/e5rIBf2NPDop-ql3grzUdvw3",
                    "display": "Beacon, Emily"
                },
                "period": {
                    "start": "2001-10-04",
                    "end": "2001-10-04"
                }
            },
            "search": {
                "mode": "match"
            }
        },
        {
            "link": [
                {
                    "relation": "self",
                    "url": "https://appmarket.epic.com/interconnect-amcurprd-oauth/api/FHIR/R4/Encounter/e4Tab4U9pz8GP4VUKDvkOzQ3"
                }
            ],
            "fullUrl": "https://appmarket.epic.com/interconnect-amcurprd-oauth/api/FHIR/R4/Encounter/e4Tab4U9pz8GP4VUKDvkOzQ3",
            "resource": {
                "resourceType": "Encounter",
                "id": "e4Tab4U9pz8GP4VUKDvkOzQ3",
                "identifier": [
                    {
                        "use": "usual",
                        "system": "urn:oid:1.2.840.114350.1.13.0.1.7.3.698084.8",
                        "value": "552"
                    }
                ],
                "status": "unknown",
                "class": {
                    "system": "urn:oid:1.2.840.114350.1.72.1.7.7.10.696784.13260",
                    "code": "13",
                    "display": "Support OP Encounter"
                },
                "subject": {
                    "reference": "Patient/e5rIBf2NPDop-ql3grzUdvw3",
                    "display": "Beacon, Emily"
                },
                "period": {
                    "start": "2001-06-08",
                    "end": "2001-06-08"
                }
            },
            "search": {
                "mode": "match"
            }
        },
        {
            "link": [
                {
                    "relation": "self",
                    "url": "https://appmarket.epic.com/interconnect-amcurprd-oauth/api/FHIR/R4/Encounter/evxeVQT4MjyRkV2lPi2H--Q3"
                }
            ],
            "fullUrl": "https://appmarket.epic.com/interconnect-amcurprd-oauth/api/FHIR/R4/Encounter/evxeVQT4MjyRkV2lPi2H--Q3",
            "resource": {
                "resourceType": "Encounter",
                "id": "evxeVQT4MjyRkV2lPi2H--Q3",
                "identifier": [
                    {
                        "use": "usual",
                        "system": "urn:oid:1.2.840.114350.1.13.0.1.7.3.698084.8",
                        "value": "553"
                    }
                ],
                "status": "unknown",
                "class": {
                    "system": "urn:oid:1.2.840.114350.1.72.1.7.7.10.696784.13260",
                    "code": "13",
                    "display": "Support OP Encounter"
                },
                "subject": {
                    "reference": "Patient/e5rIBf2NPDop-ql3grzUdvw3",
                    "display": "Beacon, Emily"
                },
                "period": {
                    "start": "2001-06-08",
                    "end": "2001-06-08"
                }
            },
            "search": {
                "mode": "match"
            }
        },
        {
            "link": [
                {
                    "relation": "self",
                    "url": "https://appmarket.epic.com/interconnect-amcurprd-oauth/api/FHIR/R4/Encounter/egl1Qx28GgLZY8HYYTLe20w3"
                }
            ],
            "fullUrl": "https://appmarket.epic.com/interconnect-amcurprd-oauth/api/FHIR/R4/Encounter/egl1Qx28GgLZY8HYYTLe20w3",
            "resource": {
                "resourceType": "Encounter",
                "id": "egl1Qx28GgLZY8HYYTLe20w3",
                "identifier": [
                    {
                        "use": "usual",
                        "system": "urn:oid:1.2.840.114350.1.13.0.1.7.3.698084.8",
                        "value": "554"
                    }
                ],
                "status": "unknown",
                "class": {
                    "system": "urn:oid:1.2.840.114350.1.72.1.7.7.10.696784.13260",
                    "code": "13",
                    "display": "Support OP Encounter"
                },
                "subject": {
                    "reference": "Patient/e5rIBf2NPDop-ql3grzUdvw3",
                    "display": "Beacon, Emily"
                },
                "period": {
                    "start": "2001-06-08",
                    "end": "2001-06-08"
                }
            },
            "search": {
                "mode": "match"
            }
        },
        {
            "link": [
                {
                    "relation": "self",
                    "url": "https://appmarket.epic.com/interconnect-amcurprd-oauth/api/FHIR/R4/Encounter/e.HqizxElpBLsJ.zPUD4F.g3"
                }
            ],
            "fullUrl": "https://appmarket.epic.com/interconnect-amcurprd-oauth/api/FHIR/R4/Encounter/e.HqizxElpBLsJ.zPUD4F.g3",
            "resource": {
                "resourceType": "Encounter",
                "id": "e.HqizxElpBLsJ.zPUD4F.g3",
                "identifier": [
                    {
                        "use": "usual",
                        "system": "urn:oid:1.2.840.114350.1.13.0.1.7.3.698084.8",
                        "value": "555"
                    }
                ],
                "status": "unknown",
                "class": {
                    "system": "urn:oid:1.2.840.114350.1.72.1.7.7.10.696784.13260",
                    "code": "13",
                    "display": "Support OP Encounter"
                },
                "subject": {
                    "reference": "Patient/e5rIBf2NPDop-ql3grzUdvw3",
                    "display": "Beacon, Emily"
                },
                "period": {
                    "start": "2000-10-09",
                    "end": "2000-10-09"
                }
            },
            "search": {
                "mode": "match"
            }
        },
        {
            "link": [
                {
                    "relation": "self",
                    "url": "https://appmarket.epic.com/interconnect-amcurprd-oauth/api/FHIR/R4/Encounter/edXR6ia5pfl1M70KcDOHHMw3"
                }
            ],
            "fullUrl": "https://appmarket.epic.com/interconnect-amcurprd-oauth/api/FHIR/R4/Encounter/edXR6ia5pfl1M70KcDOHHMw3",
            "resource": {
                "resourceType": "Encounter",
                "id": "edXR6ia5pfl1M70KcDOHHMw3",
                "identifier": [
                    {
                        "use": "usual",
                        "system": "urn:oid:1.2.840.114350.1.13.0.1.7.3.698084.8",
                        "value": "556"
                    }
                ],
                "status": "unknown",
                "class": {
                    "system": "urn:oid:1.2.840.114350.1.72.1.7.7.10.696784.13260",
                    "code": "13",
                    "display": "Support OP Encounter"
                },
                "subject": {
                    "reference": "Patient/e5rIBf2NPDop-ql3grzUdvw3",
                    "display": "Beacon, Emily"
                },
                "period": {
                    "start": "2000-10-09",
                    "end": "2000-10-09"
                }
            },
            "search": {
                "mode": "match"
            }
        },
        {
            "link": [
                {
                    "relation": "self",
                    "url": "https://appmarket.epic.com/interconnect-amcurprd-oauth/api/FHIR/R4/Encounter/evz3jqgUU0Fmxjw-lFPzHYw3"
                }
            ],
            "fullUrl": "https://appmarket.epic.com/interconnect-amcurprd-oauth/api/FHIR/R4/Encounter/evz3jqgUU0Fmxjw-lFPzHYw3",
            "resource": {
                "resourceType": "Encounter",
                "id": "evz3jqgUU0Fmxjw-lFPzHYw3",
                "identifier": [
                    {
                        "use": "usual",
                        "system": "urn:oid:1.2.840.114350.1.13.0.1.7.3.698084.8",
                        "value": "557"
                    }
                ],
                "status": "unknown",
                "class": {
                    "system": "urn:oid:1.2.840.114350.1.72.1.7.7.10.696784.13260",
                    "code": "13",
                    "display": "Support OP Encounter"
                },
                "subject": {
                    "reference": "Patient/e5rIBf2NPDop-ql3grzUdvw3",
                    "display": "Beacon, Emily"
                },
                "period": {
                    "start": "2000-10-09",
                    "end": "2000-10-09"
                }
            },
            "search": {
                "mode": "match"
            }
        },
        {
            "link": [
                {
                    "relation": "self",
                    "url": "https://appmarket.epic.com/interconnect-amcurprd-oauth/api/FHIR/R4/Patient/e5rIBf2NPDop-ql3grzUdvw3"
                }
            ],
            "fullUrl": "https://appmarket.epic.com/interconnect-amcurprd-oauth/api/FHIR/R4/Patient/e5rIBf2NPDop-ql3grzUdvw3",
            "resource": {
                "resourceType": "Patient",
                "id": "e5rIBf2NPDop-ql3grzUdvw3",
                "extension": [
                    {
                        "extension": [
                            {
                                "valueCoding": {
                                    "system": "urn:oid:2.16.840.1.113883.6.238",
                                    "code": "2106-3",
                                    "display": "White"
                                },
                                "url": "ombCategory"
                            },
                            {
                                "valueString": "White",
                                "url": "text"
                            }
                        ],
                        "url": "http://hl7.org/fhir/us/core/StructureDefinition/us-core-race"
                    },
                    {
                        "extension": [
                            {
                                "valueCoding": {
                                    "system": "urn:oid:2.16.840.1.113883.6.238",
                                    "code": "2186-5",
                                    "display": "Not Hispanic or Latino"
                                },
                                "url": "ombCategory"
                            },
                            {
                                "valueString": "Not Hispanic or Latino",
                                "url": "text"
                            }
                        ],
                        "url": "http://hl7.org/fhir/us/core/StructureDefinition/us-core-ethnicity"
                    },
                    {
                        "valueCodeableConcept": {
                            "coding": [
                                {
                                    "system": "urn:oid:1.2.840.114350.1.13.0.1.7.10.698084.130.657370.19999000",
                                    "code": "female",
                                    "display": "female"
                                }
                            ]
                        },
                        "url": "http://open.epic.com/FHIR/StructureDefinition/extension/legal-sex"
                    },
                    {
                        "valueCodeableConcept": {
                            "coding": [
                                {
                                    "system": "urn:oid:1.2.840.114350.1.13.0.1.7.10.698084.130.657370.19999000",
                                    "code": "female",
                                    "display": "female"
                                }
                            ]
                        },
                        "url": "http://open.epic.com/FHIR/StructureDefinition/extension/sex-for-clinical-use"
                    },
                    {
                        "valueCode": "F",
                        "url": "http://hl7.org/fhir/us/core/StructureDefinition/us-core-birthsex"
                    }
                ],
                "identifier": [
                    {
                        "use": "usual",
                        "system": "urn:oid:2.16.840.1.113883.4.1",
                        "value": "385-97-7503"
                    },
                    {
                        "use": "usual",
                        "type": {
                            "text": "CEID"
                        },
                        "system": "urn:epic:apporchard.curprod",
                        "value": "AO1MJWN8PWQ844L"
                    },
                    {
                        "use": "usual",
                        "type": {
                            "text": "EPIC"
                        },
                        "system": "urn:oid:1.2.840.114350.1.1",
                        "value": "E2636"
                    },
                    {
                        "use": "usual",
                        "type": {
                            "text": "EXTERNAL"
                        },
                        "system": "urn:oid:1.2.840.114350.1.13.0.1.7.2.698084",
                        "value": "Z4514"
                    },
                    {
                        "use": "usual",
                        "type": {
                            "text": "FHIR"
                        },
                        "system": "http://open.epic.com/FHIR/StructureDefinition/patient-dstu2-fhir-id",
                        "value": "T4K6LgUBwiArKqVUBxbtJEDIpbEyhMk9GAVxJpgeHpKoB"
                    },
                    {
                        "use": "usual",
                        "type": {
                            "text": "FHIR STU3"
                        },
                        "system": "http://open.epic.com/FHIR/StructureDefinition/patient-fhir-id",
                        "value": "e5rIBf2NPDop-ql3grzUdvw3"
                    },
                    {
                        "use": "usual",
                        "type": {
                            "text": "INTERNAL"
                        },
                        "system": "urn:oid:1.2.840.114350.1.13.0.1.7.2.698084",
                        "value": "     Z4514"
                    },
                    {
                        "use": "usual",
                        "type": {
                            "text": "MRN"
                        },
                        "system": "urn:oid:1.2.840.114350.1.13.0.1.7.5.737384.14",
                        "value": "202402"
                    },
                    {
                        "use": "usual",
                        "type": {
                            "text": "MYCHARTLOGIN"
                        },
                        "system": "urn:oid:1.2.840.114350.1.13.0.1.7.3.878082.110",
                        "value": "BEACONEMILY"
                    },
                    {
                        "use": "usual",
                        "type": {
                            "text": "WPRINTERNAL"
                        },
                        "system": "urn:oid:1.2.840.114350.1.13.0.1.7.2.878082",
                        "value": "63"
                    }
                ],
                "active": true,
                "name": [
                    {
                        "use": "official",
                        "text": "Emily Beacon",
                        "family": "Beacon",
                        "given": [
                            "Emily"
                        ]
                    },
                    {
                        "use": "usual",
                        "text": "Emily Beacon",
                        "family": "Beacon",
                        "given": [
                            "Emily"
                        ]
                    }
                ],
                "telecom": [
                    {
                        "system": "phone",
                        "value": "608-555-4578",
                        "use": "home"
                    },
                    {
                        "system": "phone",
                        "value": "608-555-4785",
                        "use": "work"
                    },
                    {
                        "system": "phone",
                        "value": "608-555-7774",
                        "use": "mobile"
                    }
                ],
                "gender": "female",
                "birthDate": "1981-05-27",
                "deceasedBoolean": false,
                "address": [
                    {
                        "use": "home",
                        "line": [
                            "12457 Snowbird Lane"
                        ],
                        "city": "Madison",
                        "district": "DANE",
                        "state": "WI",
                        "postalCode": "53719",
                        "country": "US"
                    }
                ],
                "maritalStatus": {
                    "text": "Married"
                },
                "contact": [
                    {
                        "relationship": [
                            {
                                "coding": [
                                    {
                                        "system": "http://terminology.hl7.org/CodeSystem/v2-0131",
                                        "code": "C",
                                        "display": "Emergency Contact"
                                    },
                                    {
                                        "system": "urn:oid:1.2.840.114350.1.13.0.1.7.4.827665.1000",
                                        "code": "17",
                                        "display": "Spouse"
                                    }
                                ],
                                "text": "Spouse"
                            }
                        ],
                        "name": {
                            "use": "usual",
                            "text": "Randy Steele"
                        },
                        "telecom": [
                            {
                                "system": "phone",
                                "value": "608-555-4578",
                                "use": "home"
                            }
                        ],
                        "address": {
                            "use": "home",
                            "line": [
                                "12457 Snowbird Lane"
                            ],
                            "city": "Madison",
                            "district": "DANE",
                            "state": "WI",
                            "postalCode": "53719",
                            "country": "US"
                        }
                    },
                    {
                        "relationship": [
                            {
                                "coding": [
                                    {
                                        "system": "http://terminology.hl7.org/CodeSystem/v2-0131",
                                        "code": "E",
                                        "display": "Employer"
                                    }
                                ]
                            }
                        ],
                        "address": {
                            "use": "work",
                            "country": "US"
                        },
                        "organization": {
                            "display": "Whispering Pines Retirement Home"
                        }
                    }
                ],
                "communication": [
                    {
                        "language": {
                            "coding": [
                                {
                                    "system": "urn:ietf:bcp:47",
                                    "code": "en",
                                    "display": "English"
                                }
                            ],
                            "text": "English"
                        },
                        "preferred": true
                    }
                ],
                "generalPractitioner": [
                    {
                        "reference": "Practitioner/eM5CWtq15N0WJeuCet5bJlQ3",
                        "type": "Practitioner",
                        "display": "Physician Family Medicine, MD"
                    }
                ],
                "managingOrganization": {
                    "reference": "Organization/enRyWnSP963FYDpoks4NHOA3",
                    "display": "Epic Hospital System"
                }
            },
            "search": {
                "mode": "include"
            }
        },
        {
            "link": [
                {
                    "relation": "self",
                    "url": "https://appmarket.epic.com/interconnect-amcurprd-oauth/api/FHIR/R4/EpisodeOfCare/ek-Ltx7UefeGaDQch7a-0HQ3"
                }
            ],
            "fullUrl": "https://appmarket.epic.com/interconnect-amcurprd-oauth/api/FHIR/R4/EpisodeOfCare/ek-Ltx7UefeGaDQch7a-0HQ3",
            "resource": {
                "resourceType": "EpisodeOfCare",
                "id": "ek-Ltx7UefeGaDQch7a-0HQ3",
                "extension": [
                    {
                        "valueString": "ONCOLOGY TREATMENT",
                        "url": "http://open.epic.com/FHIR/StructureDefinition/extension/episode-name"
                    }
                ],
                "status": "active",
                "type": [
                    {
                        "coding": [
                            {
                                "system": "urn:oid:1.2.840.114350.1.13.0.1.7.2.726668",
                                "code": "10",
                                "display": "ONCOLOGY TREATMENT"
                            },
                            {
                                "system": "urn:oid:1.2.840.114350.1.13.0.1.7.4.726668.130",
                                "code": "18",
                                "display": "Beacon - Treatment Plan"
                            }
                        ],
                        "text": "ONCOLOGY TREATMENT"
                    }
                ],
                "diagnosis": [
                    {
                        "condition": {
                            "reference": "Condition/evsNI786CrpJZgvnIn60OGQ3",
                            "type": "Condition",
                            "display": "Malignant neoplasm of breast (CMS/HCC)"
                        }
                    }
                ],
                "patient": {
                    "reference": "Patient/e5rIBf2NPDop-ql3grzUdvw3",
                    "type": "Patient",
                    "display": "Beacon, Emily"
                },
                "period": {
                    "start": "2013-08-21"
                },
                "team": [
                    {
                        "reference": "CareTeam/ez00wn7rWN0Hy4-TLapmFDLNnEVcOsy8zBAQFvhvi-hc3",
                        "type": "CareTeam"
                    }
                ]
            },
            "search": {
                "mode": "include"
            }
        }
    ]
}