{
    "resourceType": "Bundle",
    "type": "searchset",
    "total": 30,
    "link": [
        {
            "relation": "self",
            "url": "https://appmarket.epic.com/interconnect-amcurprd-oauth/api/FHIR/R4/Encounter?_include=Encounter:condition&_include=Encounter:episodeOfCare&_include=Encounter:partOf&_include=Encounter:subject&_format=json&patient=eKHD8RlfJchIWgp.MtD3jRw3"
        }
    ],
    "entry": [
        {
            "link": [
                {
                    "relation": "self",
                    "url": "https://appmarket.epic.com/interconnect-amcurprd-oauth/api/FHIR/R4/Encounter/ecRqekdIQc.g-c2wltbFchw3"
                }
            ],
            "fullUrl": "https://appmarket.epic.com/interconnect-amcurprd-oauth/api/FHIR/R4/Encounter/ecRqekdIQc.g-c2wltbFchw3",
            "resource": {
                "resourceType": "Encounter",
                "id": "ecRqekdIQc.g-c2wltbFchw3",
                "extension": [
                    {
                        "valueBoolean": false,
                        "url": "http://open.epic.com/FHIR/StructureDefinition/extension/accidentrelated"
                    }
                ],
                "identifier": [
                    {
                        "use": "usual",
                        "system": "urn:oid:1.2.840.114350.1.13.0.1.7.3.698084.8",
                        "value": "39329"
                    }
                ],
                "status": "arrived",
                "class": {
                    "system": "urn:oid:1.2.840.114350.1.72.1.7.7.10.696784.13260",
                    "code": "5",
                    "display": "Appointment"
                },
                "type": [
                    {
                        "coding": [
                            {
                                "system": "urn:oid:1.2.840.114350.1.13.0.1.7.10.698084.30",
                                "code": "50",
                                "display": "Appointment"
                            }
                        ],
                        "text": "Appointment"
                    },
                    {
                        "coding": [
                            {
                                "system": "urn:oid:1.2.840.114350.1.13.0.1.7.2.808267",
                                "code": "1004",
                                "display": "Office Visit"
                            }
                        ],
                        "text": "Office Visit"
                    }
                ],
                "subject": {
                    "reference": "Patient/eKHD8RlfJchIWgp.MtD3jRw3",
                    "display": "Radiant, Christina"
                },
                "participant": [
                    {
                        "type": [
                            {
                                "coding": [
                                    {
                                        "system": "http://hl7.org/fhir/v3/ParticipationType",
                                        "code": "REF",
                                        "display": "referrer"
                                    }
                                ],
                                "text": "referrer"
                            }
                        ],
                        "individual": {
                            "reference": "Practitioner/eFDLlPwY9Zi.6EHce8wkRmA3",
                            "type": "Practitioner",
                            "display": "Outpatient Physician Family Medicine, MD"
                        }
                    },
                    {
                        "period": {
                            "start": "2022-11-24T14:00:00Z",
                            "end": "2022-11-24T14:15:00Z"
                        },
                        "individual": {
                            "reference": "Practitioner/eFDLlPwY9Zi.6EHce8wkRmA3",
                            "display": "Outpatient Physician Family Medicine, MD"
                        }
                    }
                ],
                "period": {
                    "start": "2022-11-24T14:00:00Z",
                    "end": "2022-11-24T14:15:00Z"
                },
                "location": [
                    {
                        "location": {
                            "reference": "Location/e4W4rmGe9QzuGm2Dy4NBqVc0KDe6yGld6HW95UuN-Qd03",
                            "display": "EMC Family Medicine"
                        }
                    }
                ]
            },
            "search": {
                "mode": "match"
            }
        },
        {
            "link": [
                {
                    "relation": "self",
                    "url": "https://appmarket.epic.com/interconnect-amcurprd-oauth/api/FHIR/R4/Encounter/ePeHo5GdVeZyK5Jm0xyGcGA3"
                }
            ],
            "fullUrl": "https://appmarket.epic.com/interconnect-amcurprd-oauth/api/FHIR/R4/Encounter/ePeHo5GdVeZyK5Jm0xyGcGA3",
            "resource": {
                "resourceType": "Encounter",
                "id": "ePeHo5GdVeZyK5Jm0xyGcGA3",
                "extension": [
                    {
                        "valueBoolean": false,
                        "url": "http://open.epic.com/FHIR/StructureDefinition/extension/accidentrelated"
                    }
                ],
                "identifier": [
                    {
                        "use": "usual",
                        "system": "urn:oid:1.2.840.114350.1.13.0.1.7.3.698084.8",
                        "value": "39277"
                    }
                ],
                "status": "arrived",
                "class": {
                    "system": "urn:oid:1.2.840.114350.1.72.1.7.7.10.696784.13260",
                    "code": "5",
                    "display": "Appointment"
                },
                "type": [
                    {
                        "coding": [
                            {
                                "system": "urn:oid:1.2.840.114350.1.13.0.1.7.10.698084.30",
                                "code": "50",
                                "display": "Appointment"
                            }
                        ],
                        "text": "Appointment"
                    },
                    {
                        "coding": [
                            {
                                "system": "urn:oid:1.2.840.114350.1.13.0.1.7.2.808267",
                                "code": "1004",
                                "display": "Office Visit"
                            }
                        ],
                        "text": "Office Visit"
                    }
                ],
                "subject": {
                    "reference": "Patient/eKHD8RlfJchIWgp.MtD3jRw3",
                    "display": "Radiant, Christina"
                },
                "participant": [
                    {
                        "type": [
                            {
                                "coding": [
                                    {
                                        "system": "http://hl7.org/fhir/v3/ParticipationType",
                                        "code": "REF",
                                        "display": "referrer"
                                    }
                                ],
                                "text": "referrer"
                            }
                        ],
                        "individual": {
                            "reference": "Practitioner/eFDLlPwY9Zi.6EHce8wkRmA3",
                            "type": "Practitioner",
                            "display": "Outpatient Physician Family Medicine, MD"
                        }
                    },
                    {
                        "period": {
                            "start": "2022-10-31T14:15:00Z",
                            "end": "2022-10-31T14:30:00Z"
                        },
                        "individual": {
                            "reference": "Practitioner/eFDLlPwY9Zi.6EHce8wkRmA3",
                            "display": "Outpatient Physician Family Medicine, MD"
                        }
                    }
                ],
                "period": {
                    "start": "2022-10-31T14:15:00Z",
                    "end": "2022-10-31T14:30:00Z"
                },
                "location": [
                    {
                        "location": {
                            "reference": "Location/e4W4rmGe9QzuGm2Dy4NBqVc0KDe6yGld6HW95UuN-Qd03",
                            "display": "EMC Family Medicine"
                        }
                    }
                ]
            },
            "search": {
                "mode": "match"
            }
        },
        {
            "link": [
                {
                    "relation": "self",
                    "url": "https://appmarket.epic.com/interconnect-amcurprd-oauth/api/FHIR/R4/Encounter/eM3P9dIXNTOkuQabJQAQpcQ3"
                }
            ],
            "fullUrl": "https://appmarket.epic.com/interconnect-amcurprd-oauth/api/FHIR/R4/Encounter/eM3P9dIXNTOkuQabJQAQpcQ3",
            "resource": {
                "resourceType": "Encounter",
                "id": "eM3P9dIXNTOkuQabJQAQpcQ3",
                "identifier": [
                    {
                        "use": "usual",
                        "system": "urn:oid:1.2.840.114350.1.13.0.1.7.3.698084.8",
                        "value": "37775"
                    }
                ],
                "status": "arrived",
                "class": {
                    "system": "urn:oid:1.2.840.114350.1.72.1.7.7.10.696784.13260",
                    "code": "5",
                    "display": "Appointment"
                },
                "type": [
                    {
                        "coding": [
                            {
                                "system": "urn:oid:1.2.840.114350.1.13.0.1.7.10.698084.10110",
                                "code": "102",
                                "display": "Outpatient"
                            }
                        ],
                        "text": "Outpatient"
                    },
                    {
                        "coding": [
                            {
                                "system": "urn:oid:1.2.840.114350.1.13.0.1.7.10.698084.30",
                                "code": "50",
                                "display": "Appointment"
                            }
                        ],
                        "text": "Appointment"
                    },
                    {
                        "coding": [
                            {
                                "system": "urn:oid:1.2.840.114350.1.13.0.1.7.2.808267",
                                "code": "1050181",
                                "display": "CT Head without Contrast"
                            }
                        ],
                        "text": "CT Head without Contrast"
                    }
                ],
                "subject": {
                    "reference": "Patient/eKHD8RlfJchIWgp.MtD3jRw3",
                    "display": "Radiant, Christina"
                },
                "participant": [
                    {
                        "type": [
                            {
                                "coding": [
                                    {
                                        "system": "http://hl7.org/fhir/v3/ParticipationType",
                                        "code": "REF",
                                        "display": "referrer"
                                    }
                                ],
                                "text": "referrer"
                            }
                        ],
                        "individual": {
                            "reference": "Practitioner/eM5CWtq15N0WJeuCet5bJlQ3",
                            "type": "Practitioner",
                            "display": "Physician Family Medicine, MD"
                        }
                    },
                    {
                        "period": {
                            "start": "2022-01-09T21:20:00Z",
                            "end": "2022-01-09T21:50:00Z"
                        },
                        "individual": {
                            "display": "EMC CT"
                        }
                    }
                ],
                "period": {
                    "start": "2022-01-09T21:20:00Z",
                    "end": "2022-01-09T21:50:00Z"
                },
                "location": [
                    {
                        "location": {
                            "reference": "Location/e7eNb7sQKvs6peR9.Ie5oau2gEc1rk3BunsIG-cF2mPQ3",
                            "display": "EMC CT Imaging"
                        }
                    }
                ]
            },
            "search": {
                "mode": "match"
            }
        },
        {
            "link": [
                {
                    "relation": "self",
                    "url": "https://appmarket.epic.com/interconnect-amcurprd-oauth/api/FHIR/R4/Encounter/eCAot-lYMtbmS1g7.4bkMLQ3"
                }
            ],
            "fullUrl": "https://appmarket.epic.com/interconnect-amcurprd-oauth/api/FHIR/R4/Encounter/eCAot-lYMtbmS1g7.4bkMLQ3",
            "resource": {
                "resourceType": "Encounter",
                "id": "eCAot-lYMtbmS1g7.4bkMLQ3",
                "identifier": [
                    {
                        "use": "usual",
                        "system": "urn:oid:1.2.840.114350.1.13.0.1.7.3.698084.8",
                        "value": "37774"
                    }
                ],
                "status": "in-progress",
                "class": {
                    "system": "urn:oid:1.2.840.114350.1.72.1.7.7.10.696784.13260",
                    "code": "13",
                    "display": "Support OP Encounter"
                },
                "type": [
                    {
                        "coding": [
                            {
                                "system": "urn:oid:1.2.840.114350.1.13.0.1.7.10.698084.30",
                                "code": "117",
                                "display": "Ancillary Orders"
                            }
                        ],
                        "text": "Ancillary Orders"
                    }
                ],
                "subject": {
                    "reference": "Patient/eKHD8RlfJchIWgp.MtD3jRw3",
                    "display": "Radiant, Christina"
                },
                "period": {
                    "start": "2022-01-09",
                    "end": "2022-01-09"
                },
                "location": [
                    {
                        "location": {
                            "reference": "Location/e4W4rmGe9QzuGm2Dy4NBqVc0KDe6yGld6HW95UuN-Qd03",
                            "display": "EMC Family Medicine"
                        }
                    }
                ]
            },
            "search": {
                "mode": "match"
            }
        },
        {
            "link": [
                {
                    "relation": "self",
                    "url": "https://appmarket.epic.com/interconnect-amcurprd-oauth/api/FHIR/R4/Encounter/enJSSaioNmyftvOK.uigGlQ3"
                }
            ],
            "fullUrl": "https://appmarket.epic.com/interconnect-amcurprd-oauth/api/FHIR/R4/Encounter/enJSSaioNmyftvOK.uigGlQ3",
            "resource": {
                "resourceType": "Encounter",
                "id": "enJSSaioNmyftvOK.uigGlQ3",
                "extension": [
                    {
                        "valueBoolean": false,
                        "url": "http://open.epic.com/FHIR/StructureDefinition/extension/accidentrelated"
                    }
                ],
                "identifier": [
                    {
                        "use": "usual",
                        "system": "urn:oid:1.2.840.114350.1.13.0.1.7.3.698084.8",
                        "value": "37364"
                    }
                ],
                "status": "arrived",
                "class": {
                    "system": "urn:oid:1.2.840.114350.1.72.1.7.7.10.696784.13260",
                    "code": "5",
                    "display": "Appointment"
                },
                "type": [
                    {
                        "coding": [
                            {
                                "system": "urn:oid:1.2.840.114350.1.13.0.1.7.10.698084.30",
                                "code": "50",
                                "display": "Appointment"
                            }
                        ],
                        "text": "Appointment"
                    },
                    {
                        "coding": [
                            {
                                "system": "urn:oid:1.2.840.114350.1.13.0.1.7.2.808267",
                                "code": "1004",
                                "display": "Office Visit"
                            }
                        ],
                        "text": "Office Visit"
                    }
                ],
                "subject": {
                    "reference": "Patient/eKHD8RlfJchIWgp.MtD3jRw3",
                    "display": "Radiant, Christina"
                },
                "participant": [
                    {
                        "period": {
                            "start": "2021-10-05T19:45:00Z",
                            "end": "2021-10-05T20:00:00Z"
                        },
                        "individual": {
                            "reference": "Practitioner/eFDLlPwY9Zi.6EHce8wkRmA3",
                            "display": "Outpatient Physician Family Medicine, MD"
                        }
                    }
                ],
                "period": {
                    "start": "2021-10-05T19:45:00Z",
                    "end": "2021-10-05T20:00:00Z"
                },
                "location": [
                    {
                        "location": {
                            "reference": "Location/e4W4rmGe9QzuGm2Dy4NBqVc0KDe6yGld6HW95UuN-Qd03",
                            "display": "EMC Family Medicine"
                        }
                    }
                ]
            },
            "search": {
                "mode": "match"
            }
        },
        {
            "link": [
                {
                    "relation": "self",
                    "url": "https://appmarket.epic.com/interconnect-amcurprd-oauth/api/FHIR/R4/Encounter/eFwqsOHhzub.92BlRji7v8A3"
                }
            ],
            "fullUrl": "https://appmarket.epic.com/interconnect-amcurprd-oauth/api/FHIR/R4/Encounter/eFwqsOHhzub.92BlRji7v8A3",
            "resource": {
                "resourceType": "Encounter",
                "id": "eFwqsOHhzub.92BlRji7v8A3",
                "identifier": [
                    {
                        "use": "usual",
                        "system": "urn:oid:1.2.840.114350.1.13.0.1.7.3.698084.8",
                        "value": "37278"
                    }
                ],
                "status": "in-progress",
                "class": {
                    "system": "urn:oid:1.2.840.114350.1.72.1.7.7.10.696784.13260",
                    "code": "4",
                    "display": "HOV"
                },
                "type": [
                    {
                        "coding": [
                            {
                                "system": "urn:oid:1.2.840.114350.1.13.0.1.7.10.698084.10110",
                                "code": "102",
                                "display": "Outpatient"
                            }
                        ],
                        "text": "Outpatient"
                    },
                    {
                        "coding": [
                            {
                                "system": "urn:oid:1.2.840.114350.1.13.0.1.7.10.698084.30",
                                "code": "3",
                                "display": "Hospital Encounter"
                            }
                        ],
                        "text": "Hospital Encounter"
                    },
                    {
                        "coding": [
                            {
                                "system": "urn:oid:1.2.840.114350.1.13.0.1.7.2.808267",
                                "code": "10001",
                                "display": "Electrocardiogram"
                            }
                        ],
                        "text": "Electrocardiogram"
                    }
                ],
                "subject": {
                    "reference": "Patient/eKHD8RlfJchIWgp.MtD3jRw3",
                    "display": "Radiant, Christina"
                },
                "participant": [
                    {
                        "type": [
                            {
                                "coding": [
                                    {
                                        "system": "http://hl7.org/fhir/v3/ParticipationType",
                                        "code": "REF",
                                        "display": "referrer"
                                    }
                                ],
                                "text": "referrer"
                            }
                        ],
                        "individual": {
                            "reference": "Practitioner/eM5CWtq15N0WJeuCet5bJlQ3",
                            "type": "Practitioner",
                            "display": "Physician Family Medicine, MD"
                        }
                    },
                    {
                        "period": {
                            "start": "2021-08-18T23:00:00Z",
                            "end": "2021-08-18T23:15:00Z"
                        },
                        "individual": {
                            "reference": "Practitioner/e8q8nmCu5ehjRF8JYikiOmA3",
                            "display": "Cardiologist Cupid, MD"
                        }
                    }
                ],
                "period": {
                    "start": "2021-08-18T20:27:24Z"
                },
                "account": [
                    {
                        "identifier": {
                            "system": "urn:oid:1.2.840.114350.1.13.0.1.7.2.726582",
                            "value": "1000883"
                        },
                        "display": "RADIANT,CHRISTINA"
                    }
                ],
                "hospitalization": {
                    "extension": [
                        {
                            "valueDateTime": "2021-08-18T20:27:00Z",
                            "url": "http://open.epic.com/FHIR/StructureDefinition/extension/observation-datetime"
                        }
                    ]
                },
                "location": [
                    {
                        "location": {
                            "reference": "Location/exzJSfs-2YYqMPilpdzkcdMVzw6TB9WJfeqFRVe.cpSo3",
                            "display": "EMC Cardiology Procedures"
                        }
                    },
                    {
                        "location": {
                            "reference": "Location/exzJSfs-2YYqMPilpdzkcdMVzw6TB9WJfeqFRVe.cpSo3",
                            "display": "EMC Cardiology Procedures"
                        }
                    },
                    {
                        "location": {
                            "reference": "Location/eQSOrLdbVrMRc68KBcTBG4A3",
                            "display": "Epic Hospital System"
                        }
                    }
                ]
            },
            "search": {
                "mode": "match"
            }
        },
        {
            "link": [
                {
                    "relation": "self",
                    "url": "https://appmarket.epic.com/interconnect-amcurprd-oauth/api/FHIR/R4/Encounter/eTQSNAOA61Fwhi91fwJ.x2w3"
                }
            ],
            "fullUrl": "https://appmarket.epic.com/interconnect-amcurprd-oauth/api/FHIR/R4/Encounter/eTQSNAOA61Fwhi91fwJ.x2w3",
            "resource": {
                "resourceType": "Encounter",
                "id": "eTQSNAOA61Fwhi91fwJ.x2w3",
                "identifier": [
                    {
                        "use": "usual",
                        "system": "urn:oid:1.2.840.114350.1.13.0.1.7.3.698084.8",
                        "value": "37277"
                    }
                ],
                "status": "finished",
                "class": {
                    "system": "urn:oid:1.2.840.114350.1.72.1.7.7.10.696784.13260",
                    "code": "13",
                    "display": "Support OP Encounter"
                },
                "type": [
                    {
                        "coding": [
                            {
                                "system": "urn:oid:1.2.840.114350.1.13.0.1.7.10.698084.30",
                                "code": "111",
                                "display": "Orders Only"
                            }
                        ],
                        "text": "Orders Only"
                    }
                ],
                "subject": {
                    "reference": "Patient/eKHD8RlfJchIWgp.MtD3jRw3",
                    "display": "Radiant, Christina"
                },
                "period": {
                    "start": "2021-08-18",
                    "end": "2021-08-18"
                },
                "location": [
                    {
                        "location": {
                            "reference": "Location/eSd1MhvjSoQof8ouyyRyoCh4cFbd3ltaI9dHE-y5n1kw3",
                            "display": "EMH Health Information Management"
                        }
                    }
                ]
            },
            "search": {
                "mode": "match"
            }
        },
        {
            "link": [
                {
                    "relation": "self",
                    "url": "https://appmarket.epic.com/interconnect-amcurprd-oauth/api/FHIR/R4/Encounter/e655sn8-qCdUK8i.hvE9wpQ3"
                }
            ],
            "fullUrl": "https://appmarket.epic.com/interconnect-amcurprd-oauth/api/FHIR/R4/Encounter/e655sn8-qCdUK8i.hvE9wpQ3",
            "resource": {
                "resourceType": "Encounter",
                "id": "e655sn8-qCdUK8i.hvE9wpQ3",
                "extension": [
                    {
                        "valueBoolean": false,
                        "url": "http://open.epic.com/FHIR/StructureDefinition/extension/accidentrelated"
                    }
                ],
                "identifier": [
                    {
                        "use": "usual",
                        "system": "urn:oid:1.2.840.114350.1.13.0.1.7.3.698084.8",
                        "value": "34886"
                    }
                ],
                "status": "arrived",
                "class": {
                    "system": "urn:oid:1.2.840.114350.1.72.1.7.7.10.696784.13260",
                    "code": "5",
                    "display": "Appointment"
                },
                "type": [
                    {
                        "coding": [
                            {
                                "system": "urn:oid:1.2.840.114350.1.13.0.1.7.10.698084.30",
                                "code": "50",
                                "display": "Appointment"
                            }
                        ],
                        "text": "Appointment"
                    },
                    {
                        "coding": [
                            {
                                "system": "urn:oid:1.2.840.114350.1.13.0.1.7.2.808267",
                                "code": "1004",
                                "display": "Office Visit"
                            }
                        ],
                        "text": "Office Visit"
                    }
                ],
                "subject": {
                    "reference": "Patient/eKHD8RlfJchIWgp.MtD3jRw3",
                    "display": "Radiant, Christina"
                },
                "participant": [
                    {
                        "period": {
                            "start": "2021-04-30T20:30:00Z",
                            "end": "2021-04-30T20:45:00Z"
                        },
                        "individual": {
                            "reference": "Practitioner/eM5CWtq15N0WJeuCet5bJlQ3",
                            "display": "Physician Family Medicine, MD"
                        }
                    }
                ],
                "period": {
                    "start": "2021-04-30T20:30:00Z",
                    "end": "2021-04-30T20:45:00Z"
                },
                "location": [
                    {
                        "location": {
                            "reference": "Location/e4W4rmGe9QzuGm2Dy4NBqVc0KDe6yGld6HW95UuN-Qd03",
                            "display": "EMC Family Medicine"
                        }
                    }
                ]
            },
            "search": {
                "mode": "match"
            }
        },
        {
            "link": [
                {
                    "relation": "self",
                    "url": "https://appmarket.epic.com/interconnect-amcurprd-oauth/api/FHIR/R4/Encounter/exMIZwyJ4EIUUlU2RwK0r.g3"
                }
            ],
            "fullUrl": "https://appmarket.epic.com/interconnect-amcurprd-oauth/api/FHIR/R4/Encounter/exMIZwyJ4EIUUlU2RwK0r.g3",
            "resource": {
                "resourceType": "Encounter",
                "id": "exMIZwyJ4EIUUlU2RwK0r.g3",
                "identifier": [
                    {
                        "use": "usual",
                        "system": "urn:oid:1.2.840.114350.1.13.0.1.7.3.698084.8",
                        "value": "31271"
                    }
                ],
                "status": "arrived",
                "class": {
                    "system": "urn:oid:1.2.840.114350.1.72.1.7.7.10.696784.13260",
                    "code": "5",
                    "display": "Appointment"
                },
                "type": [
                    {
                        "coding": [
                            {
                                "system": "urn:oid:1.2.840.114350.1.13.0.1.7.10.698084.30",
                                "code": "50",
                                "display": "Appointment"
                            }
                        ],
                        "text": "Appointment"
                    },
                    {
                        "coding": [
                            {
                                "system": "urn:oid:1.2.840.114350.1.13.0.1.7.2.808267",
                                "code": "1050181",
                                "display": "CT Head without Contrast"
                            }
                        ],
                        "text": "CT Head without Contrast"
                    }
                ],
                "subject": {
                    "reference": "Patient/eKHD8RlfJchIWgp.MtD3jRw3",
                    "display": "Radiant, Christina"
                },
                "participant": [
                    {
                        "type": [
                            {
                                "coding": [
                                    {
                                        "system": "http://hl7.org/fhir/v3/ParticipationType",
                                        "code": "REF",
                                        "display": "referrer"
                                    }
                                ],
                                "text": "referrer"
                            }
                        ],
                        "individual": {
                            "reference": "Practitioner/e8H1VVKo6zUlSPD.Z84J0lw3",
                            "type": "Practitioner",
                            "display": "Physician Allergy, MD"
                        }
                    },
                    {
                        "period": {
                            "start": "2020-05-05T22:05:00Z",
                            "end": "2020-05-05T22:35:00Z"
                        },
                        "individual": {
                            "display": "EMC CT"
                        }
                    }
                ],
                "period": {
                    "start": "2020-05-05T22:05:00Z",
                    "end": "2020-05-05T22:35:00Z"
                },
                "location": [
                    {
                        "location": {
                            "reference": "Location/e7eNb7sQKvs6peR9.Ie5oau2gEc1rk3BunsIG-cF2mPQ3",
                            "display": "EMC CT Imaging"
                        }
                    }
                ]
            },
            "search": {
                "mode": "match"
            }
        },
        {
            "link": [
                {
                    "relation": "self",
                    "url": "https://appmarket.epic.com/interconnect-amcurprd-oauth/api/FHIR/R4/Encounter/eMJdgiqE2Fn7gv.4r1gb2PQ3"
                }
            ],
            "fullUrl": "https://appmarket.epic.com/interconnect-amcurprd-oauth/api/FHIR/R4/Encounter/eMJdgiqE2Fn7gv.4r1gb2PQ3",
            "resource": {
                "resourceType": "Encounter",
                "id": "eMJdgiqE2Fn7gv.4r1gb2PQ3",
                "identifier": [
                    {
                        "use": "usual",
                        "system": "urn:oid:1.2.840.114350.1.13.0.1.7.3.698084.8",
                        "value": "31270"
                    }
                ],
                "status": "in-progress",
                "class": {
                    "system": "urn:oid:1.2.840.114350.1.72.1.7.7.10.696784.13260",
                    "code": "13",
                    "display": "Support OP Encounter"
                },
                "type": [
                    {
                        "coding": [
                            {
                                "system": "urn:oid:1.2.840.114350.1.13.0.1.7.10.698084.30",
                                "code": "117",
                                "display": "Ancillary Orders"
                            }
                        ],
                        "text": "Ancillary Orders"
                    }
                ],
                "subject": {
                    "reference": "Patient/eKHD8RlfJchIWgp.MtD3jRw3",
                    "display": "Radiant, Christina"
                },
                "period": {
                    "start": "2020-05-05",
                    "end": "2020-05-05"
                },
                "location": [
                    {
                        "location": {
                            "reference": "Location/e7eNb7sQKvs6peR9.Ie5oau2gEc1rk3BunsIG-cF2mPQ3",
                            "display": "EMC CT Imaging"
                        }
                    }
                ]
            },
            "search": {
                "mode": "match"
            }
        },
        {
            "link": [
                {
                    "relation": "self",
                    "url": "https://appmarket.epic.com/interconnect-amcurprd-oauth/api/FHIR/R4/Encounter/eBQoHwZWrej1.bb86.6dn6A3"
                }
            ],
            "fullUrl": "https://appmarket.epic.com/interconnect-amcurprd-oauth/api/FHIR/R4/Encounter/eBQoHwZWrej1.bb86.6dn6A3",
            "resource": {
                "resourceType": "Encounter",
                "id": "eBQoHwZWrej1.bb86.6dn6A3",
                "identifier": [
                    {
                        "use": "usual",
                        "system": "urn:oid:1.2.840.114350.1.13.0.1.7.3.698084.8",
                        "value": "29777"
                    }
                ],
                "status": "arrived",
                "class": {
                    "system": "urn:oid:1.2.840.114350.1.72.1.7.7.10.696784.13260",
                    "code": "5",
                    "display": "Appointment"
                },
                "type": [
                    {
                        "coding": [
                            {
                                "system": "urn:oid:1.2.840.114350.1.13.0.1.7.10.698084.30",
                                "code": "50",
                                "display": "Appointment"
                            }
                        ],
                        "text": "Appointment"
                    },
                    {
                        "coding": [
                            {
                                "system": "urn:oid:1.2.840.114350.1.13.0.1.7.2.808267",
                                "code": "1050181",
                                "display": "CT Head without Contrast"
                            }
                        ],
                        "text": "CT Head without Contrast"
                    }
                ],
                "subject": {
                    "reference": "Patient/eKHD8RlfJchIWgp.MtD3jRw3",
                    "display": "Radiant, Christina"
                },
                "participant": [
                    {
                        "type": [
                            {
                                "coding": [
                                    {
                                        "system": "http://hl7.org/fhir/v3/ParticipationType",
                                        "code": "REF",
                                        "display": "referrer"
                                    }
                                ],
                                "text": "referrer"
                            }
                        ],
                        "individual": {
                            "reference": "Practitioner/eZwhEamCsyBt9qALFfsxTmg3",
                            "type": "Practitioner",
                            "display": "Ian Murphy, MD"
                        }
                    },
                    {
                        "period": {
                            "start": "2019-11-02T21:05:00Z",
                            "end": "2019-11-02T21:35:00Z"
                        },
                        "individual": {
                            "display": "EMC CT"
                        }
                    }
                ],
                "period": {
                    "start": "2019-11-02T21:05:00Z",
                    "end": "2019-11-02T21:35:00Z"
                },
                "location": [
                    {
                        "location": {
                            "reference": "Location/e7eNb7sQKvs6peR9.Ie5oau2gEc1rk3BunsIG-cF2mPQ3",
                            "display": "EMC CT Imaging"
                        }
                    }
                ]
            },
            "search": {
                "mode": "match"
            }
        },
        {
            "link": [
                {
                    "relation": "self",
                    "url": "https://appmarket.epic.com/interconnect-amcurprd-oauth/api/FHIR/R4/Encounter/emhV2iLMGuPxG7rHhw.XjyQ3"
                }
            ],
            "fullUrl": "https://appmarket.epic.com/interconnect-amcurprd-oauth/api/FHIR/R4/Encounter/emhV2iLMGuPxG7rHhw.XjyQ3",
            "resource": {
                "resourceType": "Encounter",
                "id": "emhV2iLMGuPxG7rHhw.XjyQ3",
                "identifier": [
                    {
                        "use": "usual",
                        "system": "urn:oid:1.2.840.114350.1.13.0.1.7.3.698084.8",
                        "value": "29776"
                    }
                ],
                "status": "in-progress",
                "class": {
                    "system": "urn:oid:1.2.840.114350.1.72.1.7.7.10.696784.13260",
                    "code": "13",
                    "display": "Support OP Encounter"
                },
                "type": [
                    {
                        "coding": [
                            {
                                "system": "urn:oid:1.2.840.114350.1.13.0.1.7.10.698084.30",
                                "code": "117",
                                "display": "Ancillary Orders"
                            }
                        ],
                        "text": "Ancillary Orders"
                    }
                ],
                "subject": {
                    "reference": "Patient/eKHD8RlfJchIWgp.MtD3jRw3",
                    "display": "Radiant, Christina"
                },
                "period": {
                    "start": "2019-11-02",
                    "end": "2019-11-02"
                },
                "location": [
                    {
                        "location": {
                            "reference": "Location/e4W4rmGe9QzuGm2Dy4NBqVc0KDe6yGld6HW95UuN-Qd03",
                            "display": "EMC Family Medicine"
                        }
                    }
                ]
            },
            "search": {
                "mode": "match"
            }
        },
        {
            "link": [
                {
                    "relation": "self",
                    "url": "https://appmarket.epic.com/interconnect-amcurprd-oauth/api/FHIR/R4/Encounter/ejRugkpAC9r2zeoOJL48PDA3"
                }
            ],
            "fullUrl": "https://appmarket.epic.com/interconnect-amcurprd-oauth/api/FHIR/R4/Encounter/ejRugkpAC9r2zeoOJL48PDA3",
            "resource": {
                "resourceType": "Encounter",
                "id": "ejRugkpAC9r2zeoOJL48PDA3",
                "identifier": [
                    {
                        "use": "usual",
                        "system": "urn:oid:1.2.840.114350.1.13.0.1.7.3.698084.8",
                        "value": "12139"
                    }
                ],
                "status": "in-progress",
                "class": {
                    "system": "urn:oid:1.2.840.114350.1.72.1.7.7.10.696784.13260",
                    "code": "4",
                    "display": "HOV"
                },
                "type": [
                    {
                        "coding": [
                            {
                                "system": "urn:oid:1.2.840.114350.1.13.0.1.7.10.698084.10110",
                                "code": "102",
                                "display": "Outpatient"
                            }
                        ],
                        "text": "Outpatient"
                    },
                    {
                        "coding": [
                            {
                                "system": "urn:oid:1.2.840.114350.1.13.0.1.7.10.698084.30",
                                "code": "3",
                                "display": "Hospital Encounter"
                            }
                        ],
                        "text": "Hospital Encounter"
                    }
                ],
                "subject": {
                    "reference": "Patient/eKHD8RlfJchIWgp.MtD3jRw3",
                    "display": "Radiant, Christina"
                },
                "participant": [
                    {
                        "type": [
                            {
                                "coding": [
                                    {
                                        "system": "http://hl7.org/fhir/v3/ParticipationType",
                                        "code": "REF",
                                        "display": "referrer"
                                    }
                                ],
                                "text": "referrer"
                            }
                        ],
                        "individual": {
                            "reference": "Practitioner/ePwlHXYFFHLNL9so.ugVNFQ3",
                            "type": "Practitioner",
                            "display": "Radiologist Radiology, MD"
                        }
                    },
                    {
                        "period": {
                            "start": "2013-11-08T19:00:00Z",
                            "end": "2013-11-08T19:30:00Z"
                        },
                        "individual": {
                            "display": "EMH CT 1"
                        }
                    }
                ],
                "period": {
                    "start": "2013-11-08T18:49:33Z"
                },
                "account": [
                    {
                        "identifier": {
                            "system": "urn:oid:1.2.840.114350.1.13.0.1.7.2.726582",
                            "value": "778"
                        },
                        "display": "RAD VALIDATE,CHRISTINA"
                    }
                ],
                "hospitalization": {
                    "extension": [
                        {
                            "valueDateTime": "2013-11-08T18:49:33Z",
                            "url": "http://open.epic.com/FHIR/StructureDefinition/extension/observation-datetime"
                        }
                    ]
                },
                "location": [
                    {
                        "location": {
                            "reference": "Location/e4OG8BMMoOhcLXWmFuBvm8NlbjHAXxL7ZhxNIjoGyor43",
                            "display": "EMH CT Imaging"
                        }
                    },
                    {
                        "location": {
                            "reference": "Location/e4OG8BMMoOhcLXWmFuBvm8NlbjHAXxL7ZhxNIjoGyor43",
                            "display": "EMH CT Imaging"
                        }
                    },
                    {
                        "location": {
                            "reference": "Location/eQSOrLdbVrMRc68KBcTBG4A3",
                            "display": "Epic Hospital System"
                        }
                    }
                ]
            },
            "search": {
                "mode": "match"
            }
        },
        {
            "link": [
                {
                    "relation": "self",
                    "url": "https://appmarket.epic.com/interconnect-amcurprd-oauth/api/FHIR/R4/Encounter/ewbAQBnBZclgrWZb.P1RSnQ3"
                }
            ],
            "fullUrl": "https://appmarket.epic.com/interconnect-amcurprd-oauth/api/FHIR/R4/Encounter/ewbAQBnBZclgrWZb.P1RSnQ3",
            "resource": {
                "resourceType": "Encounter",
                "id": "ewbAQBnBZclgrWZb.P1RSnQ3",
                "identifier": [
                    {
                        "use": "usual",
                        "system": "urn:oid:1.2.840.114350.1.13.0.1.7.3.698084.8",
                        "value": "12140"
                    }
                ],
                "status": "in-progress",
                "class": {
                    "system": "urn:oid:1.2.840.114350.1.72.1.7.7.10.696784.13260",
                    "code": "13",
                    "display": "Support OP Encounter"
                },
                "type": [
                    {
                        "coding": [
                            {
                                "system": "urn:oid:1.2.840.114350.1.13.0.1.7.10.698084.30",
                                "code": "117",
                                "display": "Ancillary Orders"
                            }
                        ],
                        "text": "Ancillary Orders"
                    }
                ],
                "subject": {
                    "reference": "Patient/eKHD8RlfJchIWgp.MtD3jRw3",
                    "display": "Radiant, Christina"
                },
                "period": {
                    "start": "2013-11-08",
                    "end": "2013-11-08"
                },
                "location": [
                    {
                        "location": {
                            "reference": "Location/ebMDkIoNMQln3iIzo3nwSkgNSuWNrpYgObEUVctbTF5s3",
                            "display": "EMH IR Imaging"
                        }
                    }
                ]
            },
            "search": {
                "mode": "match"
            }
        },
        {
            "link": [
                {
                    "relation": "self",
                    "url": "https://appmarket.epic.com/interconnect-amcurprd-oauth/api/FHIR/R4/Encounter/eZH3RWsk6pDKOzLTmC5txtw3"
                }
            ],
            "fullUrl": "https://appmarket.epic.com/interconnect-amcurprd-oauth/api/FHIR/R4/Encounter/eZH3RWsk6pDKOzLTmC5txtw3",
            "resource": {
                "resourceType": "Encounter",
                "id": "eZH3RWsk6pDKOzLTmC5txtw3",
                "identifier": [
                    {
                        "use": "usual",
                        "system": "urn:oid:1.2.840.114350.1.13.0.1.7.3.698084.8",
                        "value": "12141"
                    }
                ],
                "status": "cancelled",
                "class": {
                    "system": "urn:oid:1.2.840.114350.1.72.1.7.7.10.696784.13260",
                    "code": "3",
                    "display": "Admission"
                },
                "type": [
                    {
                        "coding": [
                            {
                                "system": "urn:oid:1.2.840.114350.1.13.0.1.7.10.698084.10110",
                                "code": "102",
                                "display": "Outpatient"
                            }
                        ],
                        "text": "Outpatient"
                    },
                    {
                        "coding": [
                            {
                                "system": "urn:oid:1.2.840.114350.1.13.0.1.7.10.698084.30",
                                "code": "3",
                                "display": "Hospital Encounter"
                            }
                        ],
                        "text": "Hospital Encounter"
                    }
                ],
                "subject": {
                    "reference": "Patient/eKHD8RlfJchIWgp.MtD3jRw3",
                    "display": "Radiant, Christina"
                },
                "participant": [
                    {
                        "type": [
                            {
                                "coding": [
                                    {
                                        "system": "http://hl7.org/fhir/v3/ParticipationType",
                                        "code": "ADM",
                                        "display": "admitter"
                                    }
                                ],
                                "text": "admitter"
                            }
                        ],
                        "individual": {
                            "reference": "Practitioner/ekK9AsfvYqLnReaTbTwFKWg3",
                            "type": "Practitioner"
                        }
                    },
                    {
                        "type": [
                            {
                                "coding": [
                                    {
                                        "system": "http://hl7.org/fhir/v3/ParticipationType",
                                        "code": "ATND",
                                        "display": "attender"
                                    }
                                ],
                                "text": "attender"
                            }
                        ],
                        "individual": {
                            "reference": "Practitioner/ekK9AsfvYqLnReaTbTwFKWg3",
                            "type": "Practitioner"
                        }
                    }
                ],
                "period": {
                    "start": "2012-10-13",
                    "end": "2012-10-13"
                },
                "location": [
                    {
                        "location": {
                            "reference": "Location/ebMDkIoNMQln3iIzo3nwSkgNSuWNrpYgObEUVctbTF5s3",
                            "display": "EMH IR Imaging"
                        }
                    },
                    {
                        "location": {
                            "reference": "Location/ebMDkIoNMQln3iIzo3nwSkgNSuWNrpYgObEUVctbTF5s3",
                            "display": "EMH IR Imaging"
                        }
                    },
                    {
                        "location": {
                            "reference": "Location/eQSOrLdbVrMRc68KBcTBG4A3",
                            "display": "Epic Hospital System"
                        }
                    }
                ]
            },
            "search": {
                "mode": "match"
            }
        },
        {
            "link": [
                {
                    "relation": "self",
                    "url": "https://appmarket.epic.com/interconnect-amcurprd-oauth/api/FHIR/R4/Encounter/ejoX6lvX7hqDsthgtaTfqxQ3"
                }
            ],
            "fullUrl": "https://appmarket.epic.com/interconnect-amcurprd-oauth/api/FHIR/R4/Encounter/ejoX6lvX7hqDsthgtaTfqxQ3",
            "resource": {
                "resourceType": "Encounter",
                "id": "ejoX6lvX7hqDsthgtaTfqxQ3",
                "identifier": [
                    {
                        "use": "usual",
                        "system": "urn:oid:1.2.840.114350.1.13.0.1.7.3.698084.8",
                        "value": "12142"
                    }
                ],
                "status": "unknown",
                "class": {
                    "system": "urn:oid:1.2.840.114350.1.72.1.7.7.10.696784.13260",
                    "code": "1",
                    "display": "Surgery Case"
                },
                "type": [
                    {
                        "coding": [
                            {
                                "system": "urn:oid:1.2.840.114350.1.13.0.1.7.10.698084.30",
                                "code": "51",
                                "display": "Surgery"
                            }
                        ],
                        "text": "Surgery"
                    }
                ],
                "subject": {
                    "reference": "Patient/eKHD8RlfJchIWgp.MtD3jRw3",
                    "display": "Radiant, Christina"
                },
                "period": {
                    "start": "2012-10-13",
                    "end": "2012-10-13"
                },
                "location": [
                    {
                        "location": {
                            "reference": "Location/eemP7-W6pa9-anwU4tQgwn7NKhpCjP.oipNazAs46zsA3",
                            "display": "EMH Interventional Radiology Imaging"
                        }
                    }
                ],
                "partOf": {
                    "reference": "Encounter/eZH3RWsk6pDKOzLTmC5txtw3",
                    "identifier": {
                        "use": "usual",
                        "system": "urn:oid:1.2.840.114350.1.13.0.1.7.3.698084.8",
                        "value": "12141"
                    },
                    "display": "Hospital Encounter"
                }
            },
            "search": {
                "mode": "match"
            }
        },
        {
            "link": [
                {
                    "relation": "self",
                    "url": "https://appmarket.epic.com/interconnect-amcurprd-oauth/api/FHIR/R4/Encounter/edQ7m1oabNp6ei-U0pk8y5Q3"
                }
            ],
            "fullUrl": "https://appmarket.epic.com/interconnect-amcurprd-oauth/api/FHIR/R4/Encounter/edQ7m1oabNp6ei-U0pk8y5Q3",
            "resource": {
                "resourceType": "Encounter",
                "id": "edQ7m1oabNp6ei-U0pk8y5Q3",
                "identifier": [
                    {
                        "use": "usual",
                        "system": "urn:oid:1.2.840.114350.1.13.0.1.7.3.698084.8",
                        "value": "12143"
                    }
                ],
                "status": "in-progress",
                "class": {
                    "system": "urn:oid:1.2.840.114350.1.72.1.7.7.10.696784.13260",
                    "code": "13",
                    "display": "Support OP Encounter"
                },
                "type": [
                    {
                        "coding": [
                            {
                                "system": "urn:oid:1.2.840.114350.1.13.0.1.7.10.698084.30",
                                "code": "117",
                                "display": "Ancillary Orders"
                            }
                        ],
                        "text": "Ancillary Orders"
                    }
                ],
                "subject": {
                    "reference": "Patient/eKHD8RlfJchIWgp.MtD3jRw3",
                    "display": "Radiant, Christina"
                },
                "period": {
                    "start": "2011-03-25",
                    "end": "2011-03-25"
                },
                "location": [
                    {
                        "location": {
                            "reference": "Location/e4W4rmGe9QzuGm2Dy4NBqVc0KDe6yGld6HW95UuN-Qd03",
                            "display": "EMC Family Medicine"
                        }
                    }
                ]
            },
            "search": {
                "mode": "match"
            }
        },
        {
            "link": [
                {
                    "relation": "self",
                    "url": "https://appmarket.epic.com/interconnect-amcurprd-oauth/api/FHIR/R4/Encounter/e326YI3E6MQIUDtnod0iUhw3"
                }
            ],
            "fullUrl": "https://appmarket.epic.com/interconnect-amcurprd-oauth/api/FHIR/R4/Encounter/e326YI3E6MQIUDtnod0iUhw3",
            "resource": {
                "resourceType": "Encounter",
                "id": "e326YI3E6MQIUDtnod0iUhw3",
                "identifier": [
                    {
                        "use": "usual",
                        "system": "urn:oid:1.2.840.114350.1.13.0.1.7.3.698084.8",
                        "value": "12144"
                    }
                ],
                "status": "unknown",
                "class": {
                    "system": "urn:oid:1.2.840.114350.1.72.1.7.7.10.696784.13260",
                    "code": "13",
                    "display": "Support OP Encounter"
                },
                "subject": {
                    "reference": "Patient/eKHD8RlfJchIWgp.MtD3jRw3",
                    "display": "Radiant, Christina"
                },
                "period": {
                    "start": "2010-11-14",
                    "end": "2010-11-14"
                }
            },
            "search": {
                "mode": "match"
            }
        },
        {
            "link": [
                {
                    "relation": "self",
                    "url": "https://appmarket.epic.com/interconnect-amcurprd-oauth/api/FHIR/R4/Encounter/es8kqk4hnSde5hj6taicLow3"
                }
            ],
            "fullUrl": "https://appmarket.epic.com/interconnect-amcurprd-oauth/api/FHIR/R4/Encounter/es8kqk4hnSde5hj6taicLow3",
            "resource": {
                "resourceType": "Encounter",
                "id": "es8kqk4hnSde5hj6taicLow3",
                "identifier": [
                    {
                        "use": "usual",
                        "system": "urn:oid:1.2.840.114350.1.13.0.1.7.3.698084.8",
                        "value": "12145"
                    }
                ],
                "status": "unknown",
                "class": {
                    "system": "urn:oid:1.2.840.114350.1.72.1.7.7.10.696784.13260",
                    "code": "13",
                    "display": "Support OP Encounter"
                },
                "subject": {
                    "reference": "Patient/eKHD8RlfJchIWgp.MtD3jRw3",
                    "display": "Radiant, Christina"
                },
                "period": {
                    "start": "2010-03-27",
                    "end": "2010-03-27"
                }
            },
            "search": {
                "mode": "match"
            }
        },
        {
            "link": [
                {
                    "relation": "self",
                    "url": "https://appmarket.epic.com/interconnect-amcurprd-oauth/api/FHIR/R4/Encounter/eenQ.WhbcmLTrcctjMD0wxQ3"
                }
            ],
            "fullUrl": "https://appmarket.epic.com/interconnect-amcurprd-oauth/api/FHIR/R4/Encounter/eenQ.WhbcmLTrcctjMD0wxQ3",
            "resource": {
                "resourceType": "Encounter",
                "id": "eenQ.WhbcmLTrcctjMD0wxQ3",
                "identifier": [
                    {
                        "use": "usual",
                        "system": "urn:oid:1.2.840.114350.1.13.0.1.7.3.698084.8",
                        "value": "12146"
                    }
                ],
                "status": "finished",
                "class": {
                    "system": "urn:oid:1.2.840.114350.1.72.1.7.7.10.696784.13260",
                    "code": "13",
                    "display": "Support OP Encounter"
                },
                "type": [
                    {
                        "coding": [
                            {
                                "system": "urn:oid:1.2.840.114350.1.13.0.1.7.10.698084.30",
                                "code": "101",
                                "display": "Office Visit"
                            }
                        ],
                        "text": "Office Visit"
                    }
                ],
                "subject": {
                    "reference": "Patient/eKHD8RlfJchIWgp.MtD3jRw3",
                    "display": "Radiant, Christina"
                },
                "participant": [
                    {
                        "type": [
                            {
                                "text": "losAuthorizingPhysician"
                            }
                        ],
                        "individual": {
                            "reference": "Practitioner/eM5CWtq15N0WJeuCet5bJlQ3",
                            "type": "Practitioner",
                            "display": "Physician Family Medicine, MD"
                        }
                    }
                ],
                "period": {
                    "start": "2010-02-23",
                    "end": "2010-02-23"
                },
                "reasonCode": [
                    {
                        "coding": [
                            {
                                "system": "urn:oid:1.2.840.114350.1.13.0.1.7.2.728286",
                                "code": "47",
                                "display": "Fever"
                            }
                        ],
                        "text": "Fever"
                    }
                ],
                "location": [
                    {
                        "location": {
                            "reference": "Location/e4W4rmGe9QzuGm2Dy4NBqVc0KDe6yGld6HW95UuN-Qd03",
                            "display": "EMC Family Medicine"
                        }
                    }
                ]
            },
            "search": {
                "mode": "match"
            }
        },
        {
            "link": [
                {
                    "relation": "self",
                    "url": "https://appmarket.epic.com/interconnect-amcurprd-oauth/api/FHIR/R4/Encounter/eNgDKxI4k3aCn2mx1qLDGtA3"
                }
            ],
            "fullUrl": "https://appmarket.epic.com/interconnect-amcurprd-oauth/api/FHIR/R4/Encounter/eNgDKxI4k3aCn2mx1qLDGtA3",
            "resource": {
                "resourceType": "Encounter",
                "id": "eNgDKxI4k3aCn2mx1qLDGtA3",
                "identifier": [
                    {
                        "use": "usual",
                        "system": "urn:oid:1.2.840.114350.1.13.0.1.7.3.698084.8",
                        "value": "12147"
                    }
                ],
                "status": "unknown",
                "class": {
                    "system": "urn:oid:1.2.840.114350.1.72.1.7.7.10.696784.13260",
                    "code": "13",
                    "display": "Support OP Encounter"
                },
                "type": [
                    {
                        "coding": [
                            {
                                "system": "urn:oid:1.2.840.114350.1.13.0.1.7.10.698084.30",
                                "code": "115",
                                "display": "Resolute Professional Billing Hospital Prof Fee"
                            }
                        ],
                        "text": "Resolute Professional Billing Hospital Prof Fee"
                    }
                ],
                "subject": {
                    "reference": "Patient/eKHD8RlfJchIWgp.MtD3jRw3",
                    "display": "Radiant, Christina"
                },
                "participant": [
                    {
                        "type": [
                            {
                                "coding": [
                                    {
                                        "system": "http://hl7.org/fhir/v3/ParticipationType",
                                        "code": "ADM",
                                        "display": "admitter"
                                    }
                                ],
                                "text": "admitter"
                            }
                        ],
                        "individual": {
                            "reference": "Practitioner/e9s-IdXQOUVywHOVoisd6xQ3",
                            "type": "Practitioner",
                            "display": "Attending Physician Inpatient, MD"
                        }
                    }
                ],
                "period": {
                    "start": "2009-11-16T06:00:00Z"
                },
                "location": [
                    {
                        "location": {
                            "reference": "Location/etk-blkZr.2.mHyBW6isfhjiMf0FMRauHE.XP765i1rY3",
                            "display": "EMH Labor and Delivery"
                        }
                    },
                    {
                        "location": {
                            "reference": "Location/etk-blkZr.2.mHyBW6isfhjiMf0FMRauHE.XP765i1rY3",
                            "display": "EMH Labor and Delivery"
                        }
                    },
                    {
                        "location": {
                            "reference": "Location/eyW.tjVUgJQl5ze6B4kzrJg3",
                            "display": "L&D - 321"
                        },
                        "physicalType": {
                            "coding": [
                                {
                                    "system": "http://terminology.hl7.org/CodeSystem/location-physical-type",
                                    "code": "ro",
                                    "display": "Room"
                                }
                            ],
                            "text": "Room"
                        }
                    }
                ]
            },
            "search": {
                "mode": "match"
            }
        },
        {
            "link": [
                {
                    "relation": "self",
                    "url": "https://appmarket.epic.com/interconnect-amcurprd-oauth/api/FHIR/R4/Encounter/eYfnYSuw9FPeNaDXchieWXg3"
                }
            ],
            "fullUrl": "https://appmarket.epic.com/interconnect-amcurprd-oauth/api/FHIR/R4/Encounter/eYfnYSuw9FPeNaDXchieWXg3",
            "resource": {
                "resourceType": "Encounter",
                "id": "eYfnYSuw9FPeNaDXchieWXg3",
                "identifier": [
                    {
                        "use": "usual",
                        "system": "urn:oid:1.2.840.114350.1.13.0.1.7.3.698084.8",
                        "value": "12148"
                    }
                ],
                "status": "finished",
                "class": {
                    "system": "urn:oid:1.2.840.114350.1.72.1.7.7.10.696784.13260",
                    "code": "6",
                    "display": "Discharge"
                },
                "type": [
                    {
                        "coding": [
                            {
                                "system": "urn:oid:1.2.840.114350.1.13.0.1.7.10.698084.10110",
                                "code": "107",
                                "display": "Newborn"
                            }
                        ],
                        "text": "Newborn"
                    },
                    {
                        "coding": [
                            {
                                "system": "urn:oid:1.2.840.114350.1.13.0.1.7.10.698084.30",
                                "code": "3",
                                "display": "Hospital Encounter"
                            }
                        ],
                        "text": "Hospital Encounter"
                    },
                    {
                        "coding": [
                            {
                                "system": "urn:oid:1.2.840.114350.1.13.0.1.7.10.698084.18875",
                                "code": "4",
                                "display": "Newborn"
                            }
                        ],
                        "text": "Newborn"
                    }
                ],
                "serviceType": {
                    "coding": [
                        {
                            "system": "urn:oid:1.2.840.114350.1.13.0.1.7.10.698084.18886",
                            "code": "17"
                        }
                    ]
                },
                "subject": {
                    "reference": "Patient/eKHD8RlfJchIWgp.MtD3jRw3",
                    "display": "Radiant, Christina"
                },
                "participant": [
                    {
                        "type": [
                            {
                                "coding": [
                                    {
                                        "system": "http://hl7.org/fhir/v3/ParticipationType",
                                        "code": "ADM",
                                        "display": "admitter"
                                    }
                                ],
                                "text": "admitter"
                            }
                        ],
                        "individual": {
                            "reference": "Practitioner/e9s-IdXQOUVywHOVoisd6xQ3",
                            "type": "Practitioner",
                            "display": "Attending Physician Inpatient, MD"
                        }
                    },
                    {
                        "type": [
                            {
                                "coding": [
                                    {
                                        "system": "http://hl7.org/fhir/v3/ParticipationType",
                                        "code": "DIS",
                                        "display": "discharger"
                                    }
                                ],
                                "text": "discharger"
                            }
                        ],
                        "individual": {
                            "reference": "Practitioner/e9s-IdXQOUVywHOVoisd6xQ3",
                            "type": "Practitioner",
                            "display": "Attending Physician Inpatient, MD"
                        }
                    },
                    {
                        "type": [
                            {
                                "coding": [
                                    {
                                        "system": "http://hl7.org/fhir/v3/ParticipationType",
                                        "code": "ATND",
                                        "display": "attender"
                                    }
                                ],
                                "text": "attender"
                            }
                        ],
                        "period": {
                            "start": "2009-11-16T20:01:00Z",
                            "end": "2009-11-16T20:10:00Z"
                        },
                        "individual": {
                            "reference": "Practitioner/e9s-IdXQOUVywHOVoisd6xQ3",
                            "type": "Practitioner",
                            "display": "Attending Physician Inpatient, MD"
                        }
                    }
                ],
                "period": {
                    "start": "2009-11-16T20:01:00Z",
                    "end": "2009-11-16T20:10:00Z"
                },
                "account": [
                    {
                        "identifier": {
                            "system": "urn:oid:1.2.840.114350.1.13.0.1.7.2.726582",
                            "value": "777"
                        },
                        "display": "RADIANT,CHRISTINA"
                    }
                ],
                "hospitalization": {
                    "extension": [
                        {
                            "valueDateTime": "2009-11-16T20:01:00Z",
                            "url": "http://open.epic.com/FHIR/StructureDefinition/extension/ip-admit-datetime"
                        }
                    ],
                    "admitSource": {
                        "coding": [
                            {
                                "system": "urn:oid:1.2.840.114350.1.13.0.1.7.10.698084.10310",
                                "code": "12"
                            }
                        ]
                    },
                    "dischargeDisposition": {
                        "coding": [
                            {
                                "system": "urn:oid:1.2.840.114350.1.13.0.1.7.10.698084.18888",
                                "code": "1",
                                "display": "Home or Self Care"
                            }
                        ],
                        "text": "Home or Self Care"
                    }
                },
                "location": [
                    {
                        "location": {
                            "reference": "Location/etk-blkZr.2.mHyBW6isfhjiMf0FMRauHE.XP765i1rY3",
                            "display": "EMH Labor and Delivery"
                        },
                        "period": {
                            "start": "2009-11-16T20:01:00Z",
                            "end": "2009-11-16T20:10:00Z"
                        }
                    },
                    {
                        "location": {
                            "reference": "Location/etk-blkZr.2.mHyBW6isfhjiMf0FMRauHE.XP765i1rY3",
                            "display": "EMH Labor and Delivery"
                        }
                    },
                    {
                        "location": {
                            "reference": "Location/eQSOrLdbVrMRc68KBcTBG4A3",
                            "display": "Epic Hospital System"
                        }
                    },
                    {
                        "location": {
                            "reference": "Location/eyW.tjVUgJQl5ze6B4kzrJg3",
                            "display": "L&D - 321"
                        },
                        "physicalType": {
                            "coding": [
                                {
                                    "system": "http://terminology.hl7.org/CodeSystem/location-physical-type",
                                    "code": "ro",
                                    "display": "Room"
                                }
                            ],
                            "text": "Room"
                        }
                    },
                    {
                        "location": {
                            "identifier": {
                                "system": "urn:oid:1.2.840.114350.1.13.0.1.7.2.666968",
                                "value": "309"
                            },
                            "display": "321-01"
                        },
                        "physicalType": {
                            "coding": [
                                {
                                    "system": "http://terminology.hl7.org/CodeSystem/location-physical-type",
                                    "code": "bd",
                                    "display": "Bed"
                                }
                            ],
                            "text": "Bed"
                        }
                    }
                ]
            },
            "search": {
                "mode": "match"
            }
        },
        {
            "link": [
                {
                    "relation": "self",
                    "url": "https://appmarket.epic.com/interconnect-amcurprd-oauth/api/FHIR/R4/Encounter/eoj3xonmL0OSfm3czTAooBg3"
                }
            ],
            "fullUrl": "https://appmarket.epic.com/interconnect-amcurprd-oauth/api/FHIR/R4/Encounter/eoj3xonmL0OSfm3czTAooBg3",
            "resource": {
                "resourceType": "Encounter",
                "id": "eoj3xonmL0OSfm3czTAooBg3",
                "identifier": [
                    {
                        "use": "usual",
                        "system": "urn:oid:1.2.840.114350.1.13.0.1.7.3.698084.8",
                        "value": "12150"
                    }
                ],
                "status": "unknown",
                "class": {
                    "system": "urn:oid:1.2.840.114350.1.72.1.7.7.10.696784.13260",
                    "code": "13",
                    "display": "Support OP Encounter"
                },
                "subject": {
                    "reference": "Patient/eKHD8RlfJchIWgp.MtD3jRw3",
                    "display": "Radiant, Christina"
                },
                "period": {
                    "start": "2009-10-15",
                    "end": "2009-10-15"
                }
            },
            "search": {
                "mode": "match"
            }
        },
        {
            "link": [
                {
                    "relation": "self",
                    "url": "https://appmarket.epic.com/interconnect-amcurprd-oauth/api/FHIR/R4/Encounter/eGHdslTc4vHL8DCYvVKHDyw3"
                }
            ],
            "fullUrl": "https://appmarket.epic.com/interconnect-amcurprd-oauth/api/FHIR/R4/Encounter/eGHdslTc4vHL8DCYvVKHDyw3",
            "resource": {
                "resourceType": "Encounter",
                "id": "eGHdslTc4vHL8DCYvVKHDyw3",
                "identifier": [
                    {
                        "use": "usual",
                        "system": "urn:oid:1.2.840.114350.1.13.0.1.7.3.698084.8",
                        "value": "12151"
                    }
                ],
                "status": "unknown",
                "class": {
                    "system": "urn:oid:1.2.840.114350.1.72.1.7.7.10.696784.13260",
                    "code": "13",
                    "display": "Support OP Encounter"
                },
                "subject": {
                    "reference": "Patient/eKHD8RlfJchIWgp.MtD3jRw3",
                    "display": "Radiant, Christina"
                },
                "period": {
                    "start": "2009-07-08",
                    "end": "2009-07-08"
                }
            },
            "search": {
                "mode": "match"
            }
        },
        {
            "link": [
                {
                    "relation": "self",
                    "url": "https://appmarket.epic.com/interconnect-amcurprd-oauth/api/FHIR/R4/Encounter/ew9.zMzeAE1MrEbLmQlltlQ3"
                }
            ],
            "fullUrl": "https://appmarket.epic.com/interconnect-amcurprd-oauth/api/FHIR/R4/Encounter/ew9.zMzeAE1MrEbLmQlltlQ3",
            "resource": {
                "resourceType": "Encounter",
                "id": "ew9.zMzeAE1MrEbLmQlltlQ3",
                "identifier": [
                    {
                        "use": "usual",
                        "system": "urn:oid:1.2.840.114350.1.13.0.1.7.3.698084.8",
                        "value": "12152"
                    }
                ],
                "status": "unknown",
                "class": {
                    "system": "urn:oid:1.2.840.114350.1.72.1.7.7.10.696784.13260",
                    "code": "13",
                    "display": "Support OP Encounter"
                },
                "subject": {
                    "reference": "Patient/eKHD8RlfJchIWgp.MtD3jRw3",
                    "display": "Radiant, Christina"
                },
                "period": {
                    "start": "2009-07-08",
                    "end": "2009-07-08"
                }
            },
            "search": {
                "mode": "match"
            }
        },
        {
            "link": [
                {
                    "relation": "self",
                    "url": "https://appmarket.epic.com/interconnect-amcurprd-oauth/api/FHIR/R4/Encounter/ewFwkGW.LoedLkIQE6MCFXg3"
                }
            ],
            "fullUrl": "https://appmarket.epic.com/interconnect-amcurprd-oauth/api/FHIR/R4/Encounter/ewFwkGW.LoedLkIQE6MCFXg3",
            "resource": {
                "resourceType": "Encounter",
                "id": "ewFwkGW.LoedLkIQE6MCFXg3",
                "identifier": [
                    {
                        "use": "usual",
                        "system": "urn:oid:1.2.840.114350.1.13.0.1.7.3.698084.8",
                        "value": "12153"
                    }
                ],
                "status": "unknown",
                "class": {
                    "system": "urn:oid:1.2.840.114350.1.72.1.7.7.10.696784.13260",
                    "code": "13",
                    "display": "Support OP Encounter"
                },
                "subject": {
                    "reference": "Patient/eKHD8RlfJchIWgp.MtD3jRw3",
                    "display": "Radiant, Christina"
                },
                "period": {
                    "start": "2009-07-08",
                    "end": "2009-07-08"
                }
            },
            "search": {
                "mode": "match"
            }
        },
        {
            "link": [
                {
                    "relation": "self",
                    "url": "https://appmarket.epic.com/interconnect-amcurprd-oauth/api/FHIR/R4/Encounter/egglMChyCB9tpVO6jTCkIqg3"
                }
            ],
            "fullUrl": "https://appmarket.epic.com/interconnect-amcurprd-oauth/api/FHIR/R4/Encounter/egglMChyCB9tpVO6jTCkIqg3",
            "resource": {
                "resourceType": "Encounter",
                "id": "egglMChyCB9tpVO6jTCkIqg3",
                "identifier": [
                    {
                        "use": "usual",
                        "system": "urn:oid:1.2.840.114350.1.13.0.1.7.3.698084.8",
                        "value": "12154"
                    }
                ],
                "status": "unknown",
                "class": {
                    "system": "urn:oid:1.2.840.114350.1.72.1.7.7.10.696784.13260",
                    "code": "13",
                    "display": "Support OP Encounter"
                },
                "subject": {
                    "reference": "Patient/eKHD8RlfJchIWgp.MtD3jRw3",
                    "display": "Radiant, Christina"
                },
                "period": {
                    "start": "2009-02-25",
                    "end": "2009-02-25"
                }
            },
            "search": {
                "mode": "match"
            }
        },
        {
            "link": [
                {
                    "relation": "self",
                    "url": "https://appmarket.epic.com/interconnect-amcurprd-oauth/api/FHIR/R4/Encounter/eZF3mneoFfVARqZtgWccvaQ3"
                }
            ],
            "fullUrl": "https://appmarket.epic.com/interconnect-amcurprd-oauth/api/FHIR/R4/Encounter/eZF3mneoFfVARqZtgWccvaQ3",
            "resource": {
                "resourceType": "Encounter",
                "id": "eZF3mneoFfVARqZtgWccvaQ3",
                "identifier": [
                    {
                        "use": "usual",
                        "system": "urn:oid:1.2.840.114350.1.13.0.1.7.3.698084.8",
                        "value": "12155"
                    }
                ],
                "status": "unknown",
                "class": {
                    "system": "urn:oid:1.2.840.114350.1.72.1.7.7.10.696784.13260",
                    "code": "13",
                    "display": "Support OP Encounter"
                },
                "subject": {
                    "reference": "Patient/eKHD8RlfJchIWgp.MtD3jRw3",
                    "display": "Radiant, Christina"
                },
                "period": {
                    "start": "2008-11-18",
                    "end": "2008-11-18"
                }
            },
            "search": {
                "mode": "match"
            }
        },
        {
            "link": [
                {
                    "relation": "self",
                    "url": "https://appmarket.epic.com/interconnect-amcurprd-oauth/api/FHIR/R4/Encounter/eJjQ19YtkOD0UX2fSeXu0KQ3"
                }
            ],
            "fullUrl": "https://appmarket.epic.com/interconnect-amcurprd-oauth/api/FHIR/R4/Encounter/eJjQ19YtkOD0UX2fSeXu0KQ3",
            "resource": {
                "resourceType": "Encounter",
                "id": "eJjQ19YtkOD0UX2fSeXu0KQ3",
                "identifier": [
                    {
                        "use": "usual",
                        "system": "urn:oid:1.2.840.114350.1.13.0.1.7.3.698084.8",
                        "value": "12156"
                    }
                ],
                "status": "unknown",
                "class": {
                    "system": "urn:oid:1.2.840.114350.1.72.1.7.7.10.696784.13260",
                    "code": "13",
                    "display": "Support OP Encounter"
                },
                "subject": {
                    "reference": "Patient/eKHD8RlfJchIWgp.MtD3jRw3",
                    "display": "Radiant, Christina"
                },
                "period": {
                    "start": "2008-11-18",
                    "end": "2008-11-18"
                }
            },
            "search": {
                "mode": "match"
            }
        },
        {
            "link": [
                {
                    "relation": "self",
                    "url": "https://appmarket.epic.com/interconnect-amcurprd-oauth/api/FHIR/R4/Encounter/eAYuI49PkB2WUc03lXI1Fiw3"
                }
            ],
            "fullUrl": "https://appmarket.epic.com/interconnect-amcurprd-oauth/api/FHIR/R4/Encounter/eAYuI49PkB2WUc03lXI1Fiw3",
            "resource": {
                "resourceType": "Encounter",
                "id": "eAYuI49PkB2WUc03lXI1Fiw3",
                "identifier": [
                    {
                        "use": "usual",
                        "system": "urn:oid:1.2.840.114350.1.13.0.1.7.3.698084.8",
                        "value": "12157"
                    }
                ],
                "status": "unknown",
                "class": {
                    "system": "urn:oid:1.2.840.114350.1.72.1.7.7.10.696784.13260",
                    "code": "13",
                    "display": "Support OP Encounter"
                },
                "subject": {
                    "reference": "Patient/eKHD8RlfJchIWgp.MtD3jRw3",
                    "display": "Radiant, Christina"
                },
                "period": {
                    "start": "2008-11-18",
                    "end": "2008-11-18"
                }
            },
            "search": {
                "mode": "match"
            }
        },
        {
            "link": [
                {
                    "relation": "self",
                    "url": "https://appmarket.epic.com/interconnect-amcurprd-oauth/api/FHIR/R4/Patient/eKHD8RlfJchIWgp.MtD3jRw3"
                }
            ],
            "fullUrl": "https://appmarket.epic.com/interconnect-amcurprd-oauth/api/FHIR/R4/Patient/eKHD8RlfJchIWgp.MtD3jRw3",
            "resource": {
                "resourceType": "Patient",
                "id": "eKHD8RlfJchIWgp.MtD3jRw3",
                "extension": [
                    {
                        "extension": [
                            {
                                "valueCoding": {
                                    "system": "http://terminology.hl7.org/CodeSystem/v3-NullFlavor",
                                    "code": "UNK",
                                    "display": "Unknown"
                                },
                                "url": "ombCategory"
                            },
                            {
                                "valueString": "Unknown",
                                "url": "text"
                            }
                        ],
                        "url": "http://hl7.org/fhir/us/core/StructureDefinition/us-core-race"
                    },
                    {
                        "extension": [
                            {
                                "valueString": "Unknown",
                                "url": "text"
                            }
                        ],
                        "url": "http://hl7.org/fhir/us/core/StructureDefinition/us-core-ethnicity"
                    },
                    {
                        "valueCodeableConcept": {
                            "coding": [
                                {
                                    "system": "urn:oid:1.2.840.114350.1.13.0.1.7.10.698084.130.657370.19999000",
                                    "code": "female",
                                    "display": "female"
                                }
                            ]
                        },
                        "url": "http://open.epic.com/FHIR/StructureDefinition/extension/legal-sex"
                    },
                    {
                        "valueCodeableConcept": {
                            "coding": [
                                {
                                    "system": "urn:oid:1.2.840.114350.1.13.0.1.7.10.698084.130.657370.19999000",
                                    "code": "female",
                                    "display": "female"
                                }
                            ]
                        },
                        "url": "http://open.epic.com/FHIR/StructureDefinition/extension/sex-for-clinical-use"
                    },
                    {
                        "valueCode": "F",
                        "url": "http://hl7.org/fhir/us/core/StructureDefinition/us-core-birthsex"
                    }
                ],
                "identifier": [
                    {
                        "use": "usual",
                        "system": "urn:oid:2.16.840.1.113883.4.1",
                        "value": "148-48-3077"
                    },
                    {
                        "use": "usual",
                        "type": {
                            "text": "CEID"
                        },
                        "system": "urn:epic:apporchard.curprod",
                        "value": "AO1ZNQX69FJJQ7C"
                    },
                    {
                        "use": "usual",
                        "type": {
                            "text": "EPIC"
                        },
                        "system": "urn:oid:1.2.840.114350.1.1",
                        "value": "E2752"
                    },
                    {
                        "use": "usual",
                        "type": {
                            "text": "EXTERNAL"
                        },
                        "system": "urn:oid:1.2.840.114350.1.13.0.1.7.2.698084",
                        "value": "Z5129"
                    },
                    {
                        "use": "usual",
                        "type": {
                            "text": "FHIR"
                        },
                        "system": "http://open.epic.com/FHIR/StructureDefinition/patient-dstu2-fhir-id",
                        "value": "TWzhlFMWLDHTEUlLkBzq-fw8PkSifHPWluNdZQr.NnJ8B"
                    },
                    {
                        "use": "usual",
                        "type": {
                            "text": "FHIR STU3"
                        },
                        "system": "http://open.epic.com/FHIR/StructureDefinition/patient-fhir-id",
                        "value": "eKHD8RlfJchIWgp.MtD3jRw3"
                    },
                    {
                        "use": "usual",
                        "type": {
                            "text": "INTERNAL"
                        },
                        "system": "urn:oid:1.2.840.114350.1.13.0.1.7.2.698084",
                        "value": "     Z5129"
                    },
                    {
                        "use": "usual",
                        "type": {
                            "text": "MRN"
                        },
                        "system": "urn:oid:1.2.840.114350.1.13.0.1.7.5.737384.14",
                        "value": "202518"
                    },
                    {
                        "use": "usual",
                        "type": {
                            "text": "MYCHARTLOGIN"
                        },
                        "system": "urn:oid:1.2.840.114350.1.13.0.1.7.3.878082.110",
                        "value": "RADCHRISTIN"
                    },
                    {
                        "use": "usual",
                        "type": {
                            "text": "WPRINTERNAL"
                        },
                        "system": "urn:oid:1.2.840.114350.1.13.0.1.7.2.878082",
                        "value": "559"
                    }
                ],
                "active": true,
                "name": [
                    {
                        "use": "official",
                        "text": "Christina Radiant",
                        "family": "Radiant",
                        "given": [
                            "Christina"
                        ]
                    },
                    {
                        "use": "usual",
                        "text": "Christina Radiant",
                        "family": "Radiant",
                        "given": [
                            "Christina"
                        ]
                    }
                ],
                "telecom": [
                    {
                        "system": "phone",
                        "value": "608-251-7777",
                        "use": "home"
                    },
                    {
                        "system": "email",
                        "value": "christinaradiant_Testing@testepic.com"
                    }
                ],
                "gender": "female",
                "birthDate": "1998-08-27",
                "deceasedBoolean": false,
                "address": [
                    {
                        "use": "old",
                        "line": [
                            "1619 South University"
                        ],
                        "city": "Madison",
                        "state": "WI",
                        "postalCode": "53703",
                        "country": "US"
                    },
                    {
                        "use": "home",
                        "line": [
                            "1619 South University"
                        ],
                        "city": "Madison",
                        "state": "WI",
                        "postalCode": "53703",
                        "country": "US"
                    }
                ],
                "maritalStatus": {
                    "text": "Single"
                },
                "contact": [
                    {
                        "relationship": [
                            {
                                "coding": [
                                    {
                                        "system": "http://terminology.hl7.org/CodeSystem/v2-0131",
                                        "code": "C",
                                        "display": "Emergency Contact"
                                    },
                                    {
                                        "system": "http://terminology.hl7.org/CodeSystem/v2-0131",
                                        "code": "N",
                                        "display": "Next-of-Kin"
                                    },
                                    {
                                        "system": "urn:oid:1.2.840.114350.1.13.0.1.7.4.827665.1000",
                                        "code": "8",
                                        "display": "Mother"
                                    }
                                ],
                                "text": "Mother"
                            }
                        ],
                        "name": {
                            "use": "usual",
                            "text": "Amber Torino"
                        },
                        "telecom": [
                            {
                                "system": "phone",
                                "value": "608-251-7777",
                                "use": "home"
                            }
                        ],
                        "address": {
                            "use": "home",
                            "line": [
                                "1619 South University"
                            ],
                            "city": "Madison",
                            "state": "WI",
                            "postalCode": "53703",
                            "country": "US"
                        }
                    }
                ],
                "generalPractitioner": [
                    {
                        "reference": "Practitioner/eFDLlPwY9Zi.6EHce8wkRmA3",
                        "type": "Practitioner",
                        "display": "Outpatient Physician Family Medicine, MD"
                    }
                ],
                "managingOrganization": {
                    "reference": "Organization/enRyWnSP963FYDpoks4NHOA3",
                    "display": "Epic Hospital System"
                }
            },
            "search": {
                "mode": "include"
            }
        },
        {
            "link": [
                {
                    "relation": "self",
                    "url": "https://appmarket.epic.com/interconnect-amcurprd-oauth/api/FHIR/R4/Encounter/eZH3RWsk6pDKOzLTmC5txtw3"
                }
            ],
            "fullUrl": "https://appmarket.epic.com/interconnect-amcurprd-oauth/api/FHIR/R4/Encounter/eZH3RWsk6pDKOzLTmC5txtw3",
            "resource": {
                "resourceType": "Encounter",
                "id": "eZH3RWsk6pDKOzLTmC5txtw3",
                "identifier": [
                    {
                        "use": "usual",
                        "system": "urn:oid:1.2.840.114350.1.13.0.1.7.3.698084.8",
                        "value": "12141"
                    }
                ],
                "status": "cancelled",
                "class": {
                    "system": "urn:oid:1.2.840.114350.1.72.1.7.7.10.696784.13260",
                    "code": "3",
                    "display": "Admission"
                },
                "type": [
                    {
                        "coding": [
                            {
                                "system": "urn:oid:1.2.840.114350.1.13.0.1.7.10.698084.10110",
                                "code": "102",
                                "display": "Outpatient"
                            }
                        ],
                        "text": "Outpatient"
                    },
                    {
                        "coding": [
                            {
                                "system": "urn:oid:1.2.840.114350.1.13.0.1.7.10.698084.30",
                                "code": "3",
                                "display": "Hospital Encounter"
                            }
                        ],
                        "text": "Hospital Encounter"
                    }
                ],
                "subject": {
                    "reference": "Patient/eKHD8RlfJchIWgp.MtD3jRw3",
                    "display": "Radiant, Christina"
                },
                "participant": [
                    {
                        "type": [
                            {
                                "coding": [
                                    {
                                        "system": "http://hl7.org/fhir/v3/ParticipationType",
                                        "code": "ADM",
                                        "display": "admitter"
                                    }
                                ],
                                "text": "admitter"
                            }
                        ],
                        "individual": {
                            "reference": "Practitioner/ekK9AsfvYqLnReaTbTwFKWg3",
                            "type": "Practitioner"
                        }
                    },
                    {
                        "type": [
                            {
                                "coding": [
                                    {
                                        "system": "http://hl7.org/fhir/v3/ParticipationType",
                                        "code": "ATND",
                                        "display": "attender"
                                    }
                                ],
                                "text": "attender"
                            }
                        ],
                        "individual": {
                            "reference": "Practitioner/ekK9AsfvYqLnReaTbTwFKWg3",
                            "type": "Practitioner"
                        }
                    }
                ],
                "period": {
                    "start": "2012-10-13",
                    "end": "2012-10-13"
                },
                "location": [
                    {
                        "location": {
                            "reference": "Location/ebMDkIoNMQln3iIzo3nwSkgNSuWNrpYgObEUVctbTF5s3",
                            "display": "EMH IR Imaging"
                        }
                    },
                    {
                        "location": {
                            "reference": "Location/ebMDkIoNMQln3iIzo3nwSkgNSuWNrpYgObEUVctbTF5s3",
                            "display": "EMH IR Imaging"
                        }
                    },
                    {
                        "location": {
                            "reference": "Location/eQSOrLdbVrMRc68KBcTBG4A3",
                            "display": "Epic Hospital System"
                        }
                    }
                ]
            },
            "search": {
                "mode": "include"
            }
        }
    ]
}