{
    "resourceType": "Bundle",
    "type": "searchset",
    "total": 5,
    "link": [
        {
            "relation": "self",
            "url": "https://appmarket.epic.com/interconnect-amcurprd-oauth/api/FHIR/R4/Encounter?_include=Encounter:condition&_include=Encounter:episodeOfCare&_include=Encounter:partOf&_include=Encounter:subject&_format=json&patient=ebTyLy3dBbRjsNAhBztk0Kw3"
        }
    ],
    "entry": [
        {
            "link": [
                {
                    "relation": "self",
                    "url": "https://appmarket.epic.com/interconnect-amcurprd-oauth/api/FHIR/R4/Encounter/ezPQbOIGB5tyTN-fQERJk0g3"
                }
            ],
            "fullUrl": "https://appmarket.epic.com/interconnect-amcurprd-oauth/api/FHIR/R4/Encounter/ezPQbOIGB5tyTN-fQERJk0g3",
            "resource": {
                "resourceType": "Encounter",
                "id": "ezPQbOIGB5tyTN-fQERJk0g3",
                "identifier": [
                    {
                        "use": "usual",
                        "system": "urn:oid:1.2.840.114350.1.13.0.1.7.3.698084.8",
                        "value": "22882"
                    }
                ],
                "status": "in-progress",
                "class": {
                    "system": "urn:oid:1.2.840.114350.1.72.1.7.7.10.696784.13260",
                    "code": "17",
                    "display": "Requisition Encounter"
                },
                "type": [
                    {
                        "coding": [
                            {
                                "system": "urn:oid:1.2.840.114350.1.13.0.1.7.10.698084.10110",
                                "code": "102",
                                "display": "Outpatient"
                            }
                        ],
                        "text": "Outpatient"
                    },
                    {
                        "coding": [
                            {
                                "system": "urn:oid:1.2.840.114350.1.13.0.1.7.10.698084.30",
                                "code": "100",
                                "display": "Lab Requisition"
                            }
                        ],
                        "text": "Lab Requisition"
                    }
                ],
                "subject": {
                    "reference": "Patient/ebTyLy3dBbRjsNAhBztk0Kw3",
                    "display": "INFECT-ION'CONTROL, Bernice"
                },
                "period": {
                    "start": "2015-06-24",
                    "end": "2015-06-24"
                },
                "account": [
                    {
                        "identifier": {
                            "system": "urn:oid:1.2.840.114350.1.13.0.1.7.2.726582",
                            "value": "1000278"
                        },
                        "display": "INFECT-ION'CONTROL,BERNICE"
                    }
                ],
                "location": [
                    {
                        "location": {
                            "reference": "Location/e8QQW7E0rbWMmW0bdDtReyUgAUIW-J.eds3ae-jBjJuY3",
                            "display": "EMH Hospital Lab"
                        }
                    }
                ]
            },
            "search": {
                "mode": "match"
            }
        },
        {
            "link": [
                {
                    "relation": "self",
                    "url": "https://appmarket.epic.com/interconnect-amcurprd-oauth/api/FHIR/R4/Encounter/eypxu7LasBdXKLc0JJ6WFAA3"
                }
            ],
            "fullUrl": "https://appmarket.epic.com/interconnect-amcurprd-oauth/api/FHIR/R4/Encounter/eypxu7LasBdXKLc0JJ6WFAA3",
            "resource": {
                "resourceType": "Encounter",
                "id": "eypxu7LasBdXKLc0JJ6WFAA3",
                "identifier": [
                    {
                        "use": "usual",
                        "system": "urn:oid:1.2.840.114350.1.13.0.1.7.3.698084.8",
                        "value": "20274"
                    }
                ],
                "status": "finished",
                "class": {
                    "system": "urn:oid:1.2.840.114350.1.72.1.7.7.10.696784.13260",
                    "code": "13",
                    "display": "Support OP Encounter"
                },
                "type": [
                    {
                        "coding": [
                            {
                                "system": "urn:oid:1.2.840.114350.1.13.0.1.7.10.698084.30",
                                "code": "111",
                                "display": "Orders Only"
                            }
                        ],
                        "text": "Orders Only"
                    }
                ],
                "subject": {
                    "reference": "Patient/ebTyLy3dBbRjsNAhBztk0Kw3",
                    "display": "INFECT-ION'CONTROL, Bernice"
                },
                "period": {
                    "start": "2015-01-27",
                    "end": "2015-01-27"
                },
                "location": [
                    {
                        "location": {
                            "reference": "Location/elEPSyVq2Ab9N6PUgmArsTEIB5Wxvvh6pXzeSAJznxGY3",
                            "display": "Critical Care"
                        }
                    }
                ]
            },
            "search": {
                "mode": "match"
            }
        },
        {
            "link": [
                {
                    "relation": "self",
                    "url": "https://appmarket.epic.com/interconnect-amcurprd-oauth/api/FHIR/R4/Encounter/e0Nh5Qv2jvOLL31ynnWmoZQ3"
                }
            ],
            "fullUrl": "https://appmarket.epic.com/interconnect-amcurprd-oauth/api/FHIR/R4/Encounter/e0Nh5Qv2jvOLL31ynnWmoZQ3",
            "resource": {
                "resourceType": "Encounter",
                "id": "e0Nh5Qv2jvOLL31ynnWmoZQ3",
                "extension": [
                    {
                        "valueBoolean": false,
                        "url": "http://open.epic.com/FHIR/StructureDefinition/extension/accidentrelated"
                    }
                ],
                "identifier": [
                    {
                        "use": "usual",
                        "system": "urn:oid:1.2.840.114350.1.13.0.1.7.3.698084.8",
                        "value": "15747"
                    }
                ],
                "status": "in-progress",
                "class": {
                    "system": "urn:oid:1.2.840.114350.1.72.1.7.7.10.696784.13260",
                    "code": "3",
                    "display": "Admission"
                },
                "type": [
                    {
                        "coding": [
                            {
                                "system": "urn:oid:1.2.840.114350.1.13.0.1.7.10.698084.10110",
                                "code": "108",
                                "display": "Surgery Admit"
                            }
                        ],
                        "text": "Surgery Admit"
                    },
                    {
                        "coding": [
                            {
                                "system": "urn:oid:1.2.840.114350.1.13.0.1.7.10.698084.30",
                                "code": "3",
                                "display": "Hospital Encounter"
                            }
                        ],
                        "text": "Hospital Encounter"
                    },
                    {
                        "coding": [
                            {
                                "system": "urn:oid:1.2.840.114350.1.13.0.1.7.10.698084.18875",
                                "code": "3",
                                "display": "Elective"
                            }
                        ],
                        "text": "Elective"
                    }
                ],
                "serviceType": {
                    "coding": [
                        {
                            "system": "urn:oid:1.2.840.114350.1.13.0.1.7.10.698084.18886",
                            "code": "124",
                            "display": "General Surgery"
                        }
                    ],
                    "text": "General Surgery"
                },
                "subject": {
                    "reference": "Patient/ebTyLy3dBbRjsNAhBztk0Kw3",
                    "display": "INFECT-ION'CONTROL, Bernice"
                },
                "participant": [
                    {
                        "type": [
                            {
                                "coding": [
                                    {
                                        "system": "http://hl7.org/fhir/v3/ParticipationType",
                                        "code": "ADM",
                                        "display": "admitter"
                                    }
                                ],
                                "text": "admitter"
                            }
                        ],
                        "individual": {
                            "reference": "Practitioner/eRgcOyrDHZihisGGw-jg1lA3",
                            "type": "Practitioner",
                            "display": "Physician Orthopaedics, MD"
                        }
                    },
                    {
                        "type": [
                            {
                                "coding": [
                                    {
                                        "system": "http://hl7.org/fhir/v3/ParticipationType",
                                        "code": "ATND",
                                        "display": "attender"
                                    }
                                ],
                                "text": "attender"
                            }
                        ],
                        "period": {
                            "start": "2014-02-05T17:21:00Z"
                        },
                        "individual": {
                            "reference": "Practitioner/eRgcOyrDHZihisGGw-jg1lA3",
                            "type": "Practitioner",
                            "display": "Physician Orthopaedics, MD"
                        }
                    },
                    {
                        "extension": [
                            {
                                "valueCodeableConcept": {
                                    "coding": [
                                        {
                                            "system": "urn:oid:1.2.840.114350.1.13.0.1.7.4.698084.18832",
                                            "code": "27",
                                            "display": "Orthopaedic Surgery"
                                        }
                                    ],
                                    "text": "Orthopaedic Surgery"
                                },
                                "url": "http://open.epic.com/FHIR/StructureDefinition/extension/specialty"
                            }
                        ],
                        "type": [
                            {
                                "coding": [
                                    {
                                        "system": "urn:oid:1.2.840.114350.1.13.0.1.7.10.698084.18869",
                                        "code": "Surgeon",
                                        "display": "Surgeon"
                                    }
                                ],
                                "text": "Surgeon"
                            }
                        ],
                        "period": {
                            "start": "2014-02-05T17:18:08Z"
                        },
                        "individual": {
                            "reference": "Practitioner/eRgcOyrDHZihisGGw-jg1lA3",
                            "type": "Practitioner",
                            "display": "Physician Orthopaedics, MD"
                        }
                    }
                ],
                "period": {
                    "start": "2014-02-05T17:21:00Z"
                },
                "account": [
                    {
                        "identifier": {
                            "system": "urn:oid:1.2.840.114350.1.13.0.1.7.2.726582",
                            "value": "1000033"
                        },
                        "display": "INFECT-ION'CONTROL,BERNICE"
                    }
                ],
                "hospitalization": {
                    "extension": [
                        {
                            "valueDateTime": "2014-02-05T17:21:00Z",
                            "url": "http://open.epic.com/FHIR/StructureDefinition/extension/observation-datetime"
                        }
                    ],
                    "admitSource": {
                        "coding": [
                            {
                                "system": "urn:oid:1.2.840.114350.1.13.0.1.7.10.698084.10310",
                                "code": "1",
                                "display": "Non-Healthcare Facility"
                            }
                        ],
                        "text": "Non-Healthcare Facility"
                    }
                },
                "location": [
                    {
                        "location": {
                            "reference": "Location/eih1L3clnoL-Odea34LokKYlHPndLwGjYudOa4y6QHvk3",
                            "display": "EMH Main Operating Room"
                        },
                        "period": {
                            "start": "2014-02-05T17:21:00Z"
                        }
                    },
                    {
                        "location": {
                            "reference": "Location/eih1L3clnoL-Odea34LokKYlHPndLwGjYudOa4y6QHvk3",
                            "display": "EMH Main Operating Room"
                        }
                    },
                    {
                        "location": {
                            "reference": "Location/eQSOrLdbVrMRc68KBcTBG4A3",
                            "display": "Epic Hospital System"
                        }
                    },
                    {
                        "location": {
                            "reference": "Location/eJYEZQAKo1q4le2qxYHsFmg3",
                            "display": "OR"
                        },
                        "physicalType": {
                            "coding": [
                                {
                                    "system": "http://terminology.hl7.org/CodeSystem/location-physical-type",
                                    "code": "ro",
                                    "display": "Room"
                                }
                            ],
                            "text": "Room"
                        }
                    },
                    {
                        "location": {
                            "identifier": {
                                "system": "urn:oid:1.2.840.114350.1.13.0.1.7.2.666968",
                                "value": "349"
                            },
                            "display": "-"
                        },
                        "physicalType": {
                            "coding": [
                                {
                                    "system": "http://terminology.hl7.org/CodeSystem/location-physical-type",
                                    "code": "bd",
                                    "display": "Bed"
                                }
                            ],
                            "text": "Bed"
                        }
                    }
                ]
            },
            "search": {
                "mode": "match"
            }
        },
        {
            "link": [
                {
                    "relation": "self",
                    "url": "https://appmarket.epic.com/interconnect-amcurprd-oauth/api/FHIR/R4/Encounter/ePGA7Ad5ePXmMvCH7lY6Lcw3"
                }
            ],
            "fullUrl": "https://appmarket.epic.com/interconnect-amcurprd-oauth/api/FHIR/R4/Encounter/ePGA7Ad5ePXmMvCH7lY6Lcw3",
            "resource": {
                "resourceType": "Encounter",
                "id": "ePGA7Ad5ePXmMvCH7lY6Lcw3",
                "identifier": [
                    {
                        "use": "usual",
                        "system": "urn:oid:1.2.840.114350.1.13.0.1.7.3.698084.8",
                        "value": "15746"
                    }
                ],
                "status": "unknown",
                "class": {
                    "system": "urn:oid:1.2.840.114350.1.72.1.7.7.10.696784.13260",
                    "code": "10",
                    "display": "Surgery Log"
                },
                "type": [
                    {
                        "coding": [
                            {
                                "system": "urn:oid:1.2.840.114350.1.13.0.1.7.10.698084.30",
                                "code": "51",
                                "display": "Surgery"
                            }
                        ],
                        "text": "Surgery"
                    }
                ],
                "subject": {
                    "reference": "Patient/ebTyLy3dBbRjsNAhBztk0Kw3",
                    "display": "INFECT-ION'CONTROL, Bernice"
                },
                "period": {
                    "start": "2014-02-05T14:00:00Z",
                    "end": "2014-02-05T17:00:00Z"
                },
                "location": [
                    {
                        "location": {
                            "reference": "Location/efR3SIdpRKF9BFBM5qakt9F5X1mWxjiAGu2hNTKbqOdI3",
                            "display": "EMH Operating Room"
                        }
                    }
                ],
                "partOf": {
                    "reference": "Encounter/e0Nh5Qv2jvOLL31ynnWmoZQ3",
                    "identifier": {
                        "use": "usual",
                        "system": "urn:oid:1.2.840.114350.1.13.0.1.7.3.698084.8",
                        "value": "15747"
                    },
                    "display": "Hospital Encounter"
                }
            },
            "search": {
                "mode": "match"
            }
        },
        {
            "link": [
                {
                    "relation": "self",
                    "url": "https://appmarket.epic.com/interconnect-amcurprd-oauth/api/FHIR/R4/Encounter/eFnXTF47-19GGKGkfgZe1KA3"
                }
            ],
            "fullUrl": "https://appmarket.epic.com/interconnect-amcurprd-oauth/api/FHIR/R4/Encounter/eFnXTF47-19GGKGkfgZe1KA3",
            "resource": {
                "resourceType": "Encounter",
                "id": "eFnXTF47-19GGKGkfgZe1KA3",
                "extension": [
                    {
                        "valueBoolean": false,
                        "url": "http://open.epic.com/FHIR/StructureDefinition/extension/accidentrelated"
                    }
                ],
                "identifier": [
                    {
                        "use": "usual",
                        "system": "urn:oid:1.2.840.114350.1.13.0.1.7.3.698084.8",
                        "value": "15744"
                    }
                ],
                "status": "cancelled",
                "class": {
                    "system": "urn:oid:1.2.840.114350.1.72.1.7.7.10.696784.13260",
                    "code": "3",
                    "display": "Admission"
                },
                "type": [
                    {
                        "coding": [
                            {
                                "system": "urn:oid:1.2.840.114350.1.13.0.1.7.10.698084.10110",
                                "code": "108",
                                "display": "Surgery Admit"
                            }
                        ],
                        "text": "Surgery Admit"
                    },
                    {
                        "coding": [
                            {
                                "system": "urn:oid:1.2.840.114350.1.13.0.1.7.10.698084.30",
                                "code": "3",
                                "display": "Hospital Encounter"
                            }
                        ],
                        "text": "Hospital Encounter"
                    },
                    {
                        "coding": [
                            {
                                "system": "urn:oid:1.2.840.114350.1.13.0.1.7.10.698084.18875",
                                "code": "3",
                                "display": "Elective"
                            }
                        ],
                        "text": "Elective"
                    }
                ],
                "serviceType": {
                    "coding": [
                        {
                            "system": "urn:oid:1.2.840.114350.1.13.0.1.7.10.698084.18886",
                            "code": "125",
                            "display": "Surgical ICU"
                        }
                    ],
                    "text": "Surgical ICU"
                },
                "subject": {
                    "reference": "Patient/ebTyLy3dBbRjsNAhBztk0Kw3",
                    "display": "INFECT-ION'CONTROL, Bernice"
                },
                "participant": [
                    {
                        "type": [
                            {
                                "coding": [
                                    {
                                        "system": "http://hl7.org/fhir/v3/ParticipationType",
                                        "code": "ADM",
                                        "display": "admitter"
                                    }
                                ],
                                "text": "admitter"
                            }
                        ],
                        "individual": {
                            "reference": "Practitioner/eRgcOyrDHZihisGGw-jg1lA3",
                            "type": "Practitioner",
                            "display": "Physician Orthopaedics, MD"
                        }
                    },
                    {
                        "type": [
                            {
                                "coding": [
                                    {
                                        "system": "http://hl7.org/fhir/v3/ParticipationType",
                                        "code": "ATND",
                                        "display": "attender"
                                    }
                                ],
                                "text": "attender"
                            }
                        ],
                        "individual": {
                            "reference": "Practitioner/eRgcOyrDHZihisGGw-jg1lA3",
                            "type": "Practitioner",
                            "display": "Physician Orthopaedics, MD"
                        }
                    }
                ],
                "period": {
                    "start": "2014-01-29",
                    "end": "2014-01-29"
                },
                "account": [
                    {
                        "identifier": {
                            "system": "urn:oid:1.2.840.114350.1.13.0.1.7.2.726582",
                            "value": "1000031"
                        },
                        "display": "INFECT-ION'CONTROL,BERNICE"
                    }
                ],
                "hospitalization": {
                    "admitSource": {
                        "coding": [
                            {
                                "system": "urn:oid:1.2.840.114350.1.13.0.1.7.10.698084.10310",
                                "code": "1",
                                "display": "Non-Healthcare Facility"
                            }
                        ],
                        "text": "Non-Healthcare Facility"
                    }
                },
                "location": [
                    {
                        "location": {
                            "reference": "Location/eMTmRdibe3Cobb5ye7kYUQ3Y0DZY-MlECHXXqVnqgPc03",
                            "display": "EMH Surgical Intensive Care"
                        }
                    },
                    {
                        "location": {
                            "reference": "Location/eMTmRdibe3Cobb5ye7kYUQ3Y0DZY-MlECHXXqVnqgPc03",
                            "display": "EMH Surgical Intensive Care"
                        }
                    },
                    {
                        "location": {
                            "reference": "Location/eQSOrLdbVrMRc68KBcTBG4A3",
                            "display": "Epic Hospital System"
                        }
                    },
                    {
                        "location": {
                            "reference": "Location/e4OURscq3mcDAyFLQZ99-7A3",
                            "display": "367"
                        },
                        "physicalType": {
                            "coding": [
                                {
                                    "system": "http://terminology.hl7.org/CodeSystem/location-physical-type",
                                    "code": "ro",
                                    "display": "Room"
                                }
                            ],
                            "text": "Room"
                        }
                    },
                    {
                        "location": {
                            "identifier": {
                                "system": "urn:oid:1.2.840.114350.1.13.0.1.7.2.666968",
                                "value": "637"
                            },
                            "display": "367-01"
                        },
                        "physicalType": {
                            "coding": [
                                {
                                    "system": "http://terminology.hl7.org/CodeSystem/location-physical-type",
                                    "code": "bd",
                                    "display": "Bed"
                                }
                            ],
                            "text": "Bed"
                        }
                    }
                ]
            },
            "search": {
                "mode": "match"
            }
        },
        {
            "link": [
                {
                    "relation": "self",
                    "url": "https://appmarket.epic.com/interconnect-amcurprd-oauth/api/FHIR/R4/Encounter/e0Nh5Qv2jvOLL31ynnWmoZQ3"
                }
            ],
            "fullUrl": "https://appmarket.epic.com/interconnect-amcurprd-oauth/api/FHIR/R4/Encounter/e0Nh5Qv2jvOLL31ynnWmoZQ3",
            "resource": {
                "resourceType": "Encounter",
                "id": "e0Nh5Qv2jvOLL31ynnWmoZQ3",
                "extension": [
                    {
                        "valueBoolean": false,
                        "url": "http://open.epic.com/FHIR/StructureDefinition/extension/accidentrelated"
                    }
                ],
                "identifier": [
                    {
                        "use": "usual",
                        "system": "urn:oid:1.2.840.114350.1.13.0.1.7.3.698084.8",
                        "value": "15747"
                    }
                ],
                "status": "in-progress",
                "class": {
                    "system": "urn:oid:1.2.840.114350.1.72.1.7.7.10.696784.13260",
                    "code": "3",
                    "display": "Admission"
                },
                "type": [
                    {
                        "coding": [
                            {
                                "system": "urn:oid:1.2.840.114350.1.13.0.1.7.10.698084.10110",
                                "code": "108",
                                "display": "Surgery Admit"
                            }
                        ],
                        "text": "Surgery Admit"
                    },
                    {
                        "coding": [
                            {
                                "system": "urn:oid:1.2.840.114350.1.13.0.1.7.10.698084.30",
                                "code": "3",
                                "display": "Hospital Encounter"
                            }
                        ],
                        "text": "Hospital Encounter"
                    },
                    {
                        "coding": [
                            {
                                "system": "urn:oid:1.2.840.114350.1.13.0.1.7.10.698084.18875",
                                "code": "3",
                                "display": "Elective"
                            }
                        ],
                        "text": "Elective"
                    }
                ],
                "serviceType": {
                    "coding": [
                        {
                            "system": "urn:oid:1.2.840.114350.1.13.0.1.7.10.698084.18886",
                            "code": "124",
                            "display": "General Surgery"
                        }
                    ],
                    "text": "General Surgery"
                },
                "subject": {
                    "reference": "Patient/ebTyLy3dBbRjsNAhBztk0Kw3",
                    "display": "INFECT-ION'CONTROL, Bernice"
                },
                "participant": [
                    {
                        "type": [
                            {
                                "coding": [
                                    {
                                        "system": "http://hl7.org/fhir/v3/ParticipationType",
                                        "code": "ADM",
                                        "display": "admitter"
                                    }
                                ],
                                "text": "admitter"
                            }
                        ],
                        "individual": {
                            "reference": "Practitioner/eRgcOyrDHZihisGGw-jg1lA3",
                            "type": "Practitioner",
                            "display": "Physician Orthopaedics, MD"
                        }
                    },
                    {
                        "type": [
                            {
                                "coding": [
                                    {
                                        "system": "http://hl7.org/fhir/v3/ParticipationType",
                                        "code": "ATND",
                                        "display": "attender"
                                    }
                                ],
                                "text": "attender"
                            }
                        ],
                        "period": {
                            "start": "2014-02-05T17:21:00Z"
                        },
                        "individual": {
                            "reference": "Practitioner/eRgcOyrDHZihisGGw-jg1lA3",
                            "type": "Practitioner",
                            "display": "Physician Orthopaedics, MD"
                        }
                    },
                    {
                        "extension": [
                            {
                                "valueCodeableConcept": {
                                    "coding": [
                                        {
                                            "system": "urn:oid:1.2.840.114350.1.13.0.1.7.4.698084.18832",
                                            "code": "27",
                                            "display": "Orthopaedic Surgery"
                                        }
                                    ],
                                    "text": "Orthopaedic Surgery"
                                },
                                "url": "http://open.epic.com/FHIR/StructureDefinition/extension/specialty"
                            }
                        ],
                        "type": [
                            {
                                "coding": [
                                    {
                                        "system": "urn:oid:1.2.840.114350.1.13.0.1.7.10.698084.18869",
                                        "code": "Surgeon",
                                        "display": "Surgeon"
                                    }
                                ],
                                "text": "Surgeon"
                            }
                        ],
                        "period": {
                            "start": "2014-02-05T17:18:08Z"
                        },
                        "individual": {
                            "reference": "Practitioner/eRgcOyrDHZihisGGw-jg1lA3",
                            "type": "Practitioner",
                            "display": "Physician Orthopaedics, MD"
                        }
                    }
                ],
                "period": {
                    "start": "2014-02-05T17:21:00Z"
                },
                "account": [
                    {
                        "identifier": {
                            "system": "urn:oid:1.2.840.114350.1.13.0.1.7.2.726582",
                            "value": "1000033"
                        },
                        "display": "INFECT-ION'CONTROL,BERNICE"
                    }
                ],
                "hospitalization": {
                    "extension": [
                        {
                            "valueDateTime": "2014-02-05T17:21:00Z",
                            "url": "http://open.epic.com/FHIR/StructureDefinition/extension/observation-datetime"
                        }
                    ],
                    "admitSource": {
                        "coding": [
                            {
                                "system": "urn:oid:1.2.840.114350.1.13.0.1.7.10.698084.10310",
                                "code": "1",
                                "display": "Non-Healthcare Facility"
                            }
                        ],
                        "text": "Non-Healthcare Facility"
                    }
                },
                "location": [
                    {
                        "location": {
                            "reference": "Location/eih1L3clnoL-Odea34LokKYlHPndLwGjYudOa4y6QHvk3",
                            "display": "EMH Main Operating Room"
                        },
                        "period": {
                            "start": "2014-02-05T17:21:00Z"
                        }
                    },
                    {
                        "location": {
                            "reference": "Location/eih1L3clnoL-Odea34LokKYlHPndLwGjYudOa4y6QHvk3",
                            "display": "EMH Main Operating Room"
                        }
                    },
                    {
                        "location": {
                            "reference": "Location/eQSOrLdbVrMRc68KBcTBG4A3",
                            "display": "Epic Hospital System"
                        }
                    },
                    {
                        "location": {
                            "reference": "Location/eJYEZQAKo1q4le2qxYHsFmg3",
                            "display": "OR"
                        },
                        "physicalType": {
                            "coding": [
                                {
                                    "system": "http://terminology.hl7.org/CodeSystem/location-physical-type",
                                    "code": "ro",
                                    "display": "Room"
                                }
                            ],
                            "text": "Room"
                        }
                    },
                    {
                        "location": {
                            "identifier": {
                                "system": "urn:oid:1.2.840.114350.1.13.0.1.7.2.666968",
                                "value": "349"
                            },
                            "display": "-"
                        },
                        "physicalType": {
                            "coding": [
                                {
                                    "system": "http://terminology.hl7.org/CodeSystem/location-physical-type",
                                    "code": "bd",
                                    "display": "Bed"
                                }
                            ],
                            "text": "Bed"
                        }
                    }
                ]
            },
            "search": {
                "mode": "include"
            }
        },
        {
            "link": [
                {
                    "relation": "self",
                    "url": "https://appmarket.epic.com/interconnect-amcurprd-oauth/api/FHIR/R4/Patient/ebTyLy3dBbRjsNAhBztk0Kw3"
                }
            ],
            "fullUrl": "https://appmarket.epic.com/interconnect-amcurprd-oauth/api/FHIR/R4/Patient/ebTyLy3dBbRjsNAhBztk0Kw3",
            "resource": {
                "resourceType": "Patient",
                "id": "ebTyLy3dBbRjsNAhBztk0Kw3",
                "extension": [
                    {
                        "extension": [
                            {
                                "valueCoding": {
                                    "system": "http://terminology.hl7.org/CodeSystem/v3-NullFlavor",
                                    "code": "UNK",
                                    "display": "Unknown"
                                },
                                "url": "ombCategory"
                            },
                            {
                                "valueString": "Unknown",
                                "url": "text"
                            }
                        ],
                        "url": "http://hl7.org/fhir/us/core/StructureDefinition/us-core-race"
                    },
                    {
                        "extension": [
                            {
                                "valueString": "Unknown",
                                "url": "text"
                            }
                        ],
                        "url": "http://hl7.org/fhir/us/core/StructureDefinition/us-core-ethnicity"
                    },
                    {
                        "valueCodeableConcept": {
                            "coding": [
                                {
                                    "system": "urn:oid:1.2.840.114350.1.13.0.1.7.10.698084.130.657370.19999000",
                                    "code": "female",
                                    "display": "female"
                                }
                            ]
                        },
                        "url": "http://open.epic.com/FHIR/StructureDefinition/extension/legal-sex"
                    },
                    {
                        "valueCodeableConcept": {
                            "coding": [
                                {
                                    "system": "urn:oid:1.2.840.114350.1.13.0.1.7.10.698084.130.657370.19999000",
                                    "code": "female",
                                    "display": "female"
                                }
                            ]
                        },
                        "url": "http://open.epic.com/FHIR/StructureDefinition/extension/sex-for-clinical-use"
                    },
                    {
                        "valueCode": "F",
                        "url": "http://hl7.org/fhir/us/core/StructureDefinition/us-core-birthsex"
                    }
                ],
                "identifier": [
                    {
                        "use": "usual",
                        "system": "urn:oid:2.16.840.1.113883.4.1",
                        "value": "239-87-5214"
                    },
                    {
                        "use": "usual",
                        "type": {
                            "text": "CEID"
                        },
                        "system": "urn:epic:apporchard.curprod",
                        "value": "AO1C2B41F72GMBD"
                    },
                    {
                        "use": "usual",
                        "type": {
                            "text": "EPIC"
                        },
                        "system": "urn:oid:1.2.840.114350.1.1",
                        "value": "E3481"
                    },
                    {
                        "use": "usual",
                        "type": {
                            "text": "EXTERNAL"
                        },
                        "system": "urn:oid:1.2.840.114350.1.13.0.1.7.2.698084",
                        "value": "Z5338"
                    },
                    {
                        "use": "usual",
                        "type": {
                            "text": "FHIR"
                        },
                        "system": "http://open.epic.com/FHIR/StructureDefinition/patient-dstu2-fhir-id",
                        "value": "TAk1akHA7ETPhI1TXm56IZayKjRm84FEf8n6RgoJ1gG4B"
                    },
                    {
                        "use": "usual",
                        "type": {
                            "text": "FHIR STU3"
                        },
                        "system": "http://open.epic.com/FHIR/StructureDefinition/patient-fhir-id",
                        "value": "ebTyLy3dBbRjsNAhBztk0Kw3"
                    },
                    {
                        "use": "usual",
                        "type": {
                            "text": "INTERNAL"
                        },
                        "system": "urn:oid:1.2.840.114350.1.13.0.1.7.2.698084",
                        "value": "     Z5338"
                    },
                    {
                        "use": "usual",
                        "type": {
                            "text": "MRN"
                        },
                        "system": "urn:oid:1.2.840.114350.1.13.0.1.7.5.737384.14",
                        "value": "203236"
                    },
                    {
                        "use": "usual",
                        "type": {
                            "text": "MYCHARTLOGIN"
                        },
                        "system": "urn:oid:1.2.840.114350.1.13.0.1.7.3.878082.110",
                        "value": "ICONBERNICE"
                    },
                    {
                        "use": "usual",
                        "type": {
                            "text": "WPRINTERNAL"
                        },
                        "system": "urn:oid:1.2.840.114350.1.13.0.1.7.2.878082",
                        "value": "281"
                    }
                ],
                "active": true,
                "name": [
                    {
                        "use": "old",
                        "text": "INFECTION CONTROL,BERNICE",
                        "family": "Infection Control",
                        "given": [
                            "Bernice"
                        ]
                    },
                    {
                        "use": "old",
                        "text": "INFECTIONCONTROL,BERNICE",
                        "family": "Infectioncontrol",
                        "given": [
                            "Bernice"
                        ]
                    },
                    {
                        "use": "official",
                        "text": "Bernice INFECT-ION'CONTROL",
                        "family": "INFECT-ION'CONTROL",
                        "given": [
                            "Bernice"
                        ]
                    },
                    {
                        "use": "usual",
                        "text": "Bernice INFECT-ION'CONTROL",
                        "family": "INFECT-ION'CONTROL",
                        "given": [
                            "Bernice"
                        ]
                    }
                ],
                "telecom": [
                    {
                        "system": "phone",
                        "value": "608-986-4254",
                        "use": "home"
                    }
                ],
                "gender": "female",
                "birthDate": "1944-02-05",
                "deceasedBoolean": false,
                "address": [
                    {
                        "use": "old",
                        "line": [
                            "1979 Milky Way",
                            ""
                        ],
                        "city": "Verona",
                        "district": "DANE",
                        "state": "WI",
                        "postalCode": "53593",
                        "country": "US"
                    },
                    {
                        "use": "home",
                        "line": [
                            "1979 Milky Way",
                            ""
                        ],
                        "city": "Verona",
                        "district": "DANE",
                        "state": "WI",
                        "postalCode": "53593",
                        "country": "US"
                    }
                ],
                "maritalStatus": {
                    "text": "Unknown"
                },
                "contact": [
                    {
                        "relationship": [
                            {
                                "coding": [
                                    {
                                        "system": "http://terminology.hl7.org/CodeSystem/v2-0131",
                                        "code": "C",
                                        "display": "Emergency Contact"
                                    },
                                    {
                                        "system": "http://terminology.hl7.org/CodeSystem/v2-0131",
                                        "code": "N",
                                        "display": "Next-of-Kin"
                                    },
                                    {
                                        "system": "urn:oid:1.2.840.114350.1.13.0.1.7.4.827665.1000",
                                        "code": "15",
                                        "display": "Son"
                                    }
                                ],
                                "text": "Son"
                            }
                        ],
                        "name": {
                            "use": "usual",
                            "text": "Inf Validate,Ben"
                        },
                        "telecom": [
                            {
                                "system": "phone",
                                "value": "608-986-4254",
                                "use": "home"
                            }
                        ],
                        "address": {
                            "use": "home",
                            "line": [
                                "1979 Milky Way",
                                ""
                            ],
                            "city": "Verona",
                            "district": "DANE",
                            "state": "WI",
                            "postalCode": "53593",
                            "country": "US"
                        }
                    }
                ],
                "communication": [
                    {
                        "language": {
                            "coding": [
                                {
                                    "system": "urn:ietf:bcp:47",
                                    "code": "en",
                                    "display": "English"
                                }
                            ],
                            "text": "English"
                        },
                        "preferred": true
                    }
                ],
                "managingOrganization": {
                    "reference": "Organization/enRyWnSP963FYDpoks4NHOA3",
                    "display": "Epic Hospital System"
                }
            },
            "search": {
                "mode": "include"
            }
        }
    ]
}