{
    "resourceType": "Bundle",
    "type": "searchset",
    "total": 18,
    "link": [
        {
            "relation": "self",
            "url": "https://appmarket.epic.com/interconnect-amcurprd-oauth/api/FHIR/R4/Encounter?_include=Encounter:condition&_include=Encounter:episodeOfCare&_include=Encounter:partOf&_include=Encounter:subject&_format=json&patient=eTqJUS7eXuLWa0OCWQ4D3SA3"
        }
    ],
    "entry": [
        {
            "link": [
                {
                    "relation": "self",
                    "url": "https://appmarket.epic.com/interconnect-amcurprd-oauth/api/FHIR/R4/Encounter/eOP7mZdvFcbGduENoVgbR2g3"
                }
            ],
            "fullUrl": "https://appmarket.epic.com/interconnect-amcurprd-oauth/api/FHIR/R4/Encounter/eOP7mZdvFcbGduENoVgbR2g3",
            "resource": {
                "resourceType": "Encounter",
                "id": "eOP7mZdvFcbGduENoVgbR2g3",
                "identifier": [
                    {
                        "use": "usual",
                        "system": "urn:oid:1.2.840.114350.1.13.0.1.7.3.698084.8",
                        "value": "9590"
                    }
                ],
                "status": "finished",
                "class": {
                    "system": "urn:oid:1.2.840.114350.1.72.1.7.7.10.696784.13260",
                    "code": "13",
                    "display": "Support OP Encounter"
                },
                "type": [
                    {
                        "coding": [
                            {
                                "system": "urn:oid:1.2.840.114350.1.13.0.1.7.10.698084.30",
                                "code": "150",
                                "display": "Abstract"
                            }
                        ],
                        "text": "Abstract"
                    }
                ],
                "subject": {
                    "reference": "Patient/eTqJUS7eXuLWa0OCWQ4D3SA3",
                    "display": "Kidney, Kathryn C"
                },
                "episodeOfCare": [
                    {
                        "reference": "EpisodeOfCare/eSEwHa.XYSxGck2vod9STAA3",
                        "type": "EpisodeOfCare",
                        "display": "Kidney Transplant \u2013 4/9/2006  (#1)"
                    }
                ],
                "period": {
                    "start": "2013-11-12",
                    "end": "2013-11-12"
                },
                "location": [
                    {
                        "location": {
                            "reference": "Location/e.zUbzUZH9WErlJkdM0-hMZY7Z6JkVK.ftghaWm0ZCLs3",
                            "display": "EMH Abdominal Transplant"
                        }
                    }
                ]
            },
            "search": {
                "mode": "match"
            }
        },
        {
            "link": [
                {
                    "relation": "self",
                    "url": "https://appmarket.epic.com/interconnect-amcurprd-oauth/api/FHIR/R4/Encounter/e4g1gbbKLjSF63yIowi8oug3"
                }
            ],
            "fullUrl": "https://appmarket.epic.com/interconnect-amcurprd-oauth/api/FHIR/R4/Encounter/e4g1gbbKLjSF63yIowi8oug3",
            "resource": {
                "resourceType": "Encounter",
                "id": "e4g1gbbKLjSF63yIowi8oug3",
                "identifier": [
                    {
                        "use": "usual",
                        "system": "urn:oid:1.2.840.114350.1.13.0.1.7.3.698084.8",
                        "value": "9591"
                    }
                ],
                "status": "finished",
                "class": {
                    "system": "urn:oid:1.2.840.114350.1.72.1.7.7.10.696784.13260",
                    "code": "13",
                    "display": "Support OP Encounter"
                },
                "type": [
                    {
                        "coding": [
                            {
                                "system": "urn:oid:1.2.840.114350.1.13.0.1.7.10.698084.30",
                                "code": "111",
                                "display": "Orders Only"
                            }
                        ],
                        "text": "Orders Only"
                    }
                ],
                "subject": {
                    "reference": "Patient/eTqJUS7eXuLWa0OCWQ4D3SA3",
                    "display": "Kidney, Kathryn C"
                },
                "period": {
                    "start": "2013-10-03",
                    "end": "2013-10-03"
                },
                "location": [
                    {
                        "location": {
                            "reference": "Location/e.zUbzUZH9WErlJkdM0-hMZY7Z6JkVK.ftghaWm0ZCLs3",
                            "display": "EMH Abdominal Transplant"
                        }
                    }
                ]
            },
            "search": {
                "mode": "match"
            }
        },
        {
            "link": [
                {
                    "relation": "self",
                    "url": "https://appmarket.epic.com/interconnect-amcurprd-oauth/api/FHIR/R4/Encounter/ek-MvhYXpVvEAYUegRiS86Q3"
                }
            ],
            "fullUrl": "https://appmarket.epic.com/interconnect-amcurprd-oauth/api/FHIR/R4/Encounter/ek-MvhYXpVvEAYUegRiS86Q3",
            "resource": {
                "resourceType": "Encounter",
                "id": "ek-MvhYXpVvEAYUegRiS86Q3",
                "identifier": [
                    {
                        "use": "usual",
                        "system": "urn:oid:1.2.840.114350.1.13.0.1.7.3.698084.8",
                        "value": "9592"
                    }
                ],
                "status": "finished",
                "class": {
                    "system": "urn:oid:1.2.840.114350.1.72.1.7.7.10.696784.13260",
                    "code": "13",
                    "display": "Support OP Encounter"
                },
                "type": [
                    {
                        "coding": [
                            {
                                "system": "urn:oid:1.2.840.114350.1.13.0.1.7.10.698084.30",
                                "code": "111",
                                "display": "Orders Only"
                            }
                        ],
                        "text": "Orders Only"
                    }
                ],
                "subject": {
                    "reference": "Patient/eTqJUS7eXuLWa0OCWQ4D3SA3",
                    "display": "Kidney, Kathryn C"
                },
                "period": {
                    "start": "2013-10-01",
                    "end": "2013-10-01"
                },
                "location": [
                    {
                        "location": {
                            "reference": "Location/e.zUbzUZH9WErlJkdM0-hMZY7Z6JkVK.ftghaWm0ZCLs3",
                            "display": "EMH Abdominal Transplant"
                        }
                    }
                ]
            },
            "search": {
                "mode": "match"
            }
        },
        {
            "link": [
                {
                    "relation": "self",
                    "url": "https://appmarket.epic.com/interconnect-amcurprd-oauth/api/FHIR/R4/Encounter/eLM0bbMF4YxSI2iq4YvNaIg3"
                }
            ],
            "fullUrl": "https://appmarket.epic.com/interconnect-amcurprd-oauth/api/FHIR/R4/Encounter/eLM0bbMF4YxSI2iq4YvNaIg3",
            "resource": {
                "resourceType": "Encounter",
                "id": "eLM0bbMF4YxSI2iq4YvNaIg3",
                "identifier": [
                    {
                        "use": "usual",
                        "system": "urn:oid:1.2.840.114350.1.13.0.1.7.3.698084.8",
                        "value": "9594"
                    }
                ],
                "status": "in-progress",
                "class": {
                    "system": "urn:oid:1.2.840.114350.1.72.1.7.7.10.696784.13260",
                    "code": "13",
                    "display": "Support OP Encounter"
                },
                "type": [
                    {
                        "coding": [
                            {
                                "system": "urn:oid:1.2.840.114350.1.13.0.1.7.10.698084.30",
                                "code": "150",
                                "display": "Abstract"
                            }
                        ],
                        "text": "Abstract"
                    }
                ],
                "subject": {
                    "reference": "Patient/eTqJUS7eXuLWa0OCWQ4D3SA3",
                    "display": "Kidney, Kathryn C"
                },
                "episodeOfCare": [
                    {
                        "reference": "EpisodeOfCare/eSEwHa.XYSxGck2vod9STAA3",
                        "type": "EpisodeOfCare",
                        "display": "Kidney Transplant \u2013 4/9/2006  (#1)"
                    }
                ],
                "period": {
                    "start": "2013-04-09",
                    "end": "2013-04-09"
                },
                "reasonCode": [
                    {
                        "coding": [
                            {
                                "system": "urn:oid:1.2.840.114350.1.13.0.1.7.2.728286",
                                "code": "1410000002",
                                "display": "Kidney Transplant"
                            }
                        ],
                        "text": "Kidney Transplant"
                    }
                ],
                "location": [
                    {
                        "location": {
                            "reference": "Location/e.zUbzUZH9WErlJkdM0-hMZY7Z6JkVK.ftghaWm0ZCLs3",
                            "display": "EMH Abdominal Transplant"
                        }
                    }
                ]
            },
            "search": {
                "mode": "match"
            }
        },
        {
            "link": [
                {
                    "relation": "self",
                    "url": "https://appmarket.epic.com/interconnect-amcurprd-oauth/api/FHIR/R4/Encounter/eGtNGBamzCH78fC2MelzolA3"
                }
            ],
            "fullUrl": "https://appmarket.epic.com/interconnect-amcurprd-oauth/api/FHIR/R4/Encounter/eGtNGBamzCH78fC2MelzolA3",
            "resource": {
                "resourceType": "Encounter",
                "id": "eGtNGBamzCH78fC2MelzolA3",
                "identifier": [
                    {
                        "use": "usual",
                        "system": "urn:oid:1.2.840.114350.1.13.0.1.7.3.698084.8",
                        "value": "9595"
                    }
                ],
                "status": "in-progress",
                "class": {
                    "system": "urn:oid:1.2.840.114350.1.72.1.7.7.10.696784.13260",
                    "code": "13",
                    "display": "Support OP Encounter"
                },
                "type": [
                    {
                        "coding": [
                            {
                                "system": "urn:oid:1.2.840.114350.1.13.0.1.7.10.698084.30",
                                "code": "150",
                                "display": "Abstract"
                            }
                        ],
                        "text": "Abstract"
                    }
                ],
                "subject": {
                    "reference": "Patient/eTqJUS7eXuLWa0OCWQ4D3SA3",
                    "display": "Kidney, Kathryn C"
                },
                "period": {
                    "start": "2013-04-09",
                    "end": "2013-04-09"
                },
                "location": [
                    {
                        "location": {
                            "reference": "Location/e4W4rmGe9QzuGm2Dy4NBqVc0KDe6yGld6HW95UuN-Qd03",
                            "display": "EMC Family Medicine"
                        }
                    }
                ]
            },
            "search": {
                "mode": "match"
            }
        },
        {
            "link": [
                {
                    "relation": "self",
                    "url": "https://appmarket.epic.com/interconnect-amcurprd-oauth/api/FHIR/R4/Encounter/erCkQdQo.spo0Vb3EaEzvZw3"
                }
            ],
            "fullUrl": "https://appmarket.epic.com/interconnect-amcurprd-oauth/api/FHIR/R4/Encounter/erCkQdQo.spo0Vb3EaEzvZw3",
            "resource": {
                "resourceType": "Encounter",
                "id": "erCkQdQo.spo0Vb3EaEzvZw3",
                "identifier": [
                    {
                        "use": "usual",
                        "system": "urn:oid:1.2.840.114350.1.13.0.1.7.3.698084.8",
                        "value": "9597"
                    }
                ],
                "status": "unknown",
                "class": {
                    "system": "urn:oid:1.2.840.114350.1.72.1.7.7.10.696784.13260",
                    "code": "13",
                    "display": "Support OP Encounter"
                },
                "subject": {
                    "reference": "Patient/eTqJUS7eXuLWa0OCWQ4D3SA3",
                    "display": "Kidney, Kathryn C"
                },
                "period": {
                    "start": "2012-01-12",
                    "end": "2012-01-12"
                }
            },
            "search": {
                "mode": "match"
            }
        },
        {
            "link": [
                {
                    "relation": "self",
                    "url": "https://appmarket.epic.com/interconnect-amcurprd-oauth/api/FHIR/R4/Encounter/eqNI7Qvq.Wo0KyTQDvRoPvg3"
                }
            ],
            "fullUrl": "https://appmarket.epic.com/interconnect-amcurprd-oauth/api/FHIR/R4/Encounter/eqNI7Qvq.Wo0KyTQDvRoPvg3",
            "resource": {
                "resourceType": "Encounter",
                "id": "eqNI7Qvq.Wo0KyTQDvRoPvg3",
                "identifier": [
                    {
                        "use": "usual",
                        "system": "urn:oid:1.2.840.114350.1.13.0.1.7.3.698084.8",
                        "value": "9598"
                    }
                ],
                "status": "unknown",
                "class": {
                    "system": "urn:oid:1.2.840.114350.1.72.1.7.7.10.696784.13260",
                    "code": "13",
                    "display": "Support OP Encounter"
                },
                "subject": {
                    "reference": "Patient/eTqJUS7eXuLWa0OCWQ4D3SA3",
                    "display": "Kidney, Kathryn C"
                },
                "period": {
                    "start": "2012-01-10",
                    "end": "2012-01-10"
                }
            },
            "search": {
                "mode": "match"
            }
        },
        {
            "link": [
                {
                    "relation": "self",
                    "url": "https://appmarket.epic.com/interconnect-amcurprd-oauth/api/FHIR/R4/Encounter/erLhzV7ZHBYAVdHWuKqcKGg3"
                }
            ],
            "fullUrl": "https://appmarket.epic.com/interconnect-amcurprd-oauth/api/FHIR/R4/Encounter/erLhzV7ZHBYAVdHWuKqcKGg3",
            "resource": {
                "resourceType": "Encounter",
                "id": "erLhzV7ZHBYAVdHWuKqcKGg3",
                "identifier": [
                    {
                        "use": "usual",
                        "system": "urn:oid:1.2.840.114350.1.13.0.1.7.3.698084.8",
                        "value": "9599"
                    }
                ],
                "status": "unknown",
                "class": {
                    "system": "urn:oid:1.2.840.114350.1.72.1.7.7.10.696784.13260",
                    "code": "13",
                    "display": "Support OP Encounter"
                },
                "subject": {
                    "reference": "Patient/eTqJUS7eXuLWa0OCWQ4D3SA3",
                    "display": "Kidney, Kathryn C"
                },
                "period": {
                    "start": "2011-07-19",
                    "end": "2011-07-19"
                }
            },
            "search": {
                "mode": "match"
            }
        },
        {
            "link": [
                {
                    "relation": "self",
                    "url": "https://appmarket.epic.com/interconnect-amcurprd-oauth/api/FHIR/R4/Encounter/eXE5ttP-C7UYuXmWtwPdbXQ3"
                }
            ],
            "fullUrl": "https://appmarket.epic.com/interconnect-amcurprd-oauth/api/FHIR/R4/Encounter/eXE5ttP-C7UYuXmWtwPdbXQ3",
            "resource": {
                "resourceType": "Encounter",
                "id": "eXE5ttP-C7UYuXmWtwPdbXQ3",
                "identifier": [
                    {
                        "use": "usual",
                        "system": "urn:oid:1.2.840.114350.1.13.0.1.7.3.698084.8",
                        "value": "9600"
                    }
                ],
                "status": "unknown",
                "class": {
                    "system": "urn:oid:1.2.840.114350.1.72.1.7.7.10.696784.13260",
                    "code": "13",
                    "display": "Support OP Encounter"
                },
                "subject": {
                    "reference": "Patient/eTqJUS7eXuLWa0OCWQ4D3SA3",
                    "display": "Kidney, Kathryn C"
                },
                "period": {
                    "start": "2011-07-19",
                    "end": "2011-07-19"
                }
            },
            "search": {
                "mode": "match"
            }
        },
        {
            "link": [
                {
                    "relation": "self",
                    "url": "https://appmarket.epic.com/interconnect-amcurprd-oauth/api/FHIR/R4/Encounter/e0xkGJm1vQWAwH0MewaK5DQ3"
                }
            ],
            "fullUrl": "https://appmarket.epic.com/interconnect-amcurprd-oauth/api/FHIR/R4/Encounter/e0xkGJm1vQWAwH0MewaK5DQ3",
            "resource": {
                "resourceType": "Encounter",
                "id": "e0xkGJm1vQWAwH0MewaK5DQ3",
                "identifier": [
                    {
                        "use": "usual",
                        "system": "urn:oid:1.2.840.114350.1.13.0.1.7.3.698084.8",
                        "value": "9601"
                    }
                ],
                "status": "unknown",
                "class": {
                    "system": "urn:oid:1.2.840.114350.1.72.1.7.7.10.696784.13260",
                    "code": "13",
                    "display": "Support OP Encounter"
                },
                "subject": {
                    "reference": "Patient/eTqJUS7eXuLWa0OCWQ4D3SA3",
                    "display": "Kidney, Kathryn C"
                },
                "period": {
                    "start": "2011-07-19",
                    "end": "2011-07-19"
                }
            },
            "search": {
                "mode": "match"
            }
        },
        {
            "link": [
                {
                    "relation": "self",
                    "url": "https://appmarket.epic.com/interconnect-amcurprd-oauth/api/FHIR/R4/Encounter/ei58Q48D6gzFQw6Ib0iyTPg3"
                }
            ],
            "fullUrl": "https://appmarket.epic.com/interconnect-amcurprd-oauth/api/FHIR/R4/Encounter/ei58Q48D6gzFQw6Ib0iyTPg3",
            "resource": {
                "resourceType": "Encounter",
                "id": "ei58Q48D6gzFQw6Ib0iyTPg3",
                "identifier": [
                    {
                        "use": "usual",
                        "system": "urn:oid:1.2.840.114350.1.13.0.1.7.3.698084.8",
                        "value": "9602"
                    }
                ],
                "status": "unknown",
                "class": {
                    "system": "urn:oid:1.2.840.114350.1.72.1.7.7.10.696784.13260",
                    "code": "13",
                    "display": "Support OP Encounter"
                },
                "subject": {
                    "reference": "Patient/eTqJUS7eXuLWa0OCWQ4D3SA3",
                    "display": "Kidney, Kathryn C"
                },
                "period": {
                    "start": "2011-07-19",
                    "end": "2011-07-19"
                }
            },
            "search": {
                "mode": "match"
            }
        },
        {
            "link": [
                {
                    "relation": "self",
                    "url": "https://appmarket.epic.com/interconnect-amcurprd-oauth/api/FHIR/R4/Encounter/edaV0443FDCKBP0ucB.Rm9A3"
                }
            ],
            "fullUrl": "https://appmarket.epic.com/interconnect-amcurprd-oauth/api/FHIR/R4/Encounter/edaV0443FDCKBP0ucB.Rm9A3",
            "resource": {
                "resourceType": "Encounter",
                "id": "edaV0443FDCKBP0ucB.Rm9A3",
                "identifier": [
                    {
                        "use": "usual",
                        "system": "urn:oid:1.2.840.114350.1.13.0.1.7.3.698084.8",
                        "value": "9603"
                    }
                ],
                "status": "unknown",
                "class": {
                    "system": "urn:oid:1.2.840.114350.1.72.1.7.7.10.696784.13260",
                    "code": "13",
                    "display": "Support OP Encounter"
                },
                "subject": {
                    "reference": "Patient/eTqJUS7eXuLWa0OCWQ4D3SA3",
                    "display": "Kidney, Kathryn C"
                },
                "period": {
                    "start": "2011-06-21",
                    "end": "2011-06-21"
                }
            },
            "search": {
                "mode": "match"
            }
        },
        {
            "link": [
                {
                    "relation": "self",
                    "url": "https://appmarket.epic.com/interconnect-amcurprd-oauth/api/FHIR/R4/Encounter/e2nTgOHG0qkvw18pp3wqqqg3"
                }
            ],
            "fullUrl": "https://appmarket.epic.com/interconnect-amcurprd-oauth/api/FHIR/R4/Encounter/e2nTgOHG0qkvw18pp3wqqqg3",
            "resource": {
                "resourceType": "Encounter",
                "id": "e2nTgOHG0qkvw18pp3wqqqg3",
                "identifier": [
                    {
                        "use": "usual",
                        "system": "urn:oid:1.2.840.114350.1.13.0.1.7.3.698084.8",
                        "value": "9604"
                    }
                ],
                "status": "unknown",
                "class": {
                    "system": "urn:oid:1.2.840.114350.1.72.1.7.7.10.696784.13260",
                    "code": "13",
                    "display": "Support OP Encounter"
                },
                "subject": {
                    "reference": "Patient/eTqJUS7eXuLWa0OCWQ4D3SA3",
                    "display": "Kidney, Kathryn C"
                },
                "period": {
                    "start": "2011-06-19",
                    "end": "2011-06-19"
                }
            },
            "search": {
                "mode": "match"
            }
        },
        {
            "link": [
                {
                    "relation": "self",
                    "url": "https://appmarket.epic.com/interconnect-amcurprd-oauth/api/FHIR/R4/Encounter/eU08G4Kkvz1DaBjlDGE.IWA3"
                }
            ],
            "fullUrl": "https://appmarket.epic.com/interconnect-amcurprd-oauth/api/FHIR/R4/Encounter/eU08G4Kkvz1DaBjlDGE.IWA3",
            "resource": {
                "resourceType": "Encounter",
                "id": "eU08G4Kkvz1DaBjlDGE.IWA3",
                "identifier": [
                    {
                        "use": "usual",
                        "system": "urn:oid:1.2.840.114350.1.13.0.1.7.3.698084.8",
                        "value": "9605"
                    }
                ],
                "status": "unknown",
                "class": {
                    "system": "urn:oid:1.2.840.114350.1.72.1.7.7.10.696784.13260",
                    "code": "13",
                    "display": "Support OP Encounter"
                },
                "subject": {
                    "reference": "Patient/eTqJUS7eXuLWa0OCWQ4D3SA3",
                    "display": "Kidney, Kathryn C"
                },
                "period": {
                    "start": "2010-12-26",
                    "end": "2010-12-26"
                }
            },
            "search": {
                "mode": "match"
            }
        },
        {
            "link": [
                {
                    "relation": "self",
                    "url": "https://appmarket.epic.com/interconnect-amcurprd-oauth/api/FHIR/R4/Encounter/eXnzcLTjjsOsIlLSVs9W4bQ3"
                }
            ],
            "fullUrl": "https://appmarket.epic.com/interconnect-amcurprd-oauth/api/FHIR/R4/Encounter/eXnzcLTjjsOsIlLSVs9W4bQ3",
            "resource": {
                "resourceType": "Encounter",
                "id": "eXnzcLTjjsOsIlLSVs9W4bQ3",
                "identifier": [
                    {
                        "use": "usual",
                        "system": "urn:oid:1.2.840.114350.1.13.0.1.7.3.698084.8",
                        "value": "9606"
                    }
                ],
                "status": "unknown",
                "class": {
                    "system": "urn:oid:1.2.840.114350.1.72.1.7.7.10.696784.13260",
                    "code": "13",
                    "display": "Support OP Encounter"
                },
                "subject": {
                    "reference": "Patient/eTqJUS7eXuLWa0OCWQ4D3SA3",
                    "display": "Kidney, Kathryn C"
                },
                "period": {
                    "start": "2010-12-26",
                    "end": "2010-12-26"
                }
            },
            "search": {
                "mode": "match"
            }
        },
        {
            "link": [
                {
                    "relation": "self",
                    "url": "https://appmarket.epic.com/interconnect-amcurprd-oauth/api/FHIR/R4/Encounter/eM3vyxzDVSmjdEsFoIOCBLg3"
                }
            ],
            "fullUrl": "https://appmarket.epic.com/interconnect-amcurprd-oauth/api/FHIR/R4/Encounter/eM3vyxzDVSmjdEsFoIOCBLg3",
            "resource": {
                "resourceType": "Encounter",
                "id": "eM3vyxzDVSmjdEsFoIOCBLg3",
                "identifier": [
                    {
                        "use": "usual",
                        "system": "urn:oid:1.2.840.114350.1.13.0.1.7.3.698084.8",
                        "value": "9607"
                    }
                ],
                "status": "unknown",
                "class": {
                    "system": "urn:oid:1.2.840.114350.1.72.1.7.7.10.696784.13260",
                    "code": "13",
                    "display": "Support OP Encounter"
                },
                "subject": {
                    "reference": "Patient/eTqJUS7eXuLWa0OCWQ4D3SA3",
                    "display": "Kidney, Kathryn C"
                },
                "period": {
                    "start": "2010-12-26",
                    "end": "2010-12-26"
                }
            },
            "search": {
                "mode": "match"
            }
        },
        {
            "link": [
                {
                    "relation": "self",
                    "url": "https://appmarket.epic.com/interconnect-amcurprd-oauth/api/FHIR/R4/Encounter/eDad2GevOKgpGaDOufAgu6w3"
                }
            ],
            "fullUrl": "https://appmarket.epic.com/interconnect-amcurprd-oauth/api/FHIR/R4/Encounter/eDad2GevOKgpGaDOufAgu6w3",
            "resource": {
                "resourceType": "Encounter",
                "id": "eDad2GevOKgpGaDOufAgu6w3",
                "identifier": [
                    {
                        "use": "usual",
                        "system": "urn:oid:1.2.840.114350.1.13.0.1.7.3.698084.8",
                        "value": "9608"
                    }
                ],
                "status": "unknown",
                "class": {
                    "system": "urn:oid:1.2.840.114350.1.72.1.7.7.10.696784.13260",
                    "code": "13",
                    "display": "Support OP Encounter"
                },
                "subject": {
                    "reference": "Patient/eTqJUS7eXuLWa0OCWQ4D3SA3",
                    "display": "Kidney, Kathryn C"
                },
                "period": {
                    "start": "2010-12-26",
                    "end": "2010-12-26"
                }
            },
            "search": {
                "mode": "match"
            }
        },
        {
            "link": [
                {
                    "relation": "self",
                    "url": "https://appmarket.epic.com/interconnect-amcurprd-oauth/api/FHIR/R4/Encounter/emLpyWiBppKElyAdmCXMXaQ3"
                }
            ],
            "fullUrl": "https://appmarket.epic.com/interconnect-amcurprd-oauth/api/FHIR/R4/Encounter/emLpyWiBppKElyAdmCXMXaQ3",
            "resource": {
                "resourceType": "Encounter",
                "id": "emLpyWiBppKElyAdmCXMXaQ3",
                "identifier": [
                    {
                        "use": "usual",
                        "system": "urn:oid:1.2.840.114350.1.13.0.1.7.3.698084.8",
                        "value": "22897"
                    }
                ],
                "status": "finished",
                "class": {
                    "system": "urn:oid:1.2.840.114350.1.72.1.7.7.10.696784.13260",
                    "code": "13",
                    "display": "Support OP Encounter"
                },
                "type": [
                    {
                        "coding": [
                            {
                                "system": "urn:oid:1.2.840.114350.1.13.0.1.7.10.698084.30",
                                "code": "150",
                                "display": "Abstract"
                            }
                        ],
                        "text": "Abstract"
                    }
                ],
                "subject": {
                    "reference": "Patient/eTqJUS7eXuLWa0OCWQ4D3SA3",
                    "display": "Kidney, Kathryn C"
                },
                "episodeOfCare": [
                    {
                        "reference": "EpisodeOfCare/eSEwHa.XYSxGck2vod9STAA3",
                        "type": "EpisodeOfCare",
                        "display": "Kidney Transplant \u2013 4/9/2006  (#1)"
                    }
                ],
                "period": {
                    "start": "2006-04-11",
                    "end": "2006-04-11"
                },
                "location": [
                    {
                        "location": {
                            "reference": "Location/e.zUbzUZH9WErlJkdM0-hMZY7Z6JkVK.ftghaWm0ZCLs3",
                            "display": "EMH Abdominal Transplant"
                        }
                    }
                ]
            },
            "search": {
                "mode": "match"
            }
        },
        {
            "link": [
                {
                    "relation": "self",
                    "url": "https://appmarket.epic.com/interconnect-amcurprd-oauth/api/FHIR/R4/EpisodeOfCare/eSEwHa.XYSxGck2vod9STAA3"
                }
            ],
            "fullUrl": "https://appmarket.epic.com/interconnect-amcurprd-oauth/api/FHIR/R4/EpisodeOfCare/eSEwHa.XYSxGck2vod9STAA3",
            "resource": {
                "resourceType": "EpisodeOfCare",
                "id": "eSEwHa.XYSxGck2vod9STAA3",
                "extension": [
                    {
                        "valueString": "Kidney Transplant \u2013 4/9/2006  (#1)",
                        "url": "http://open.epic.com/FHIR/StructureDefinition/extension/episode-name"
                    },
                    {
                        "valueCodeableConcept": {
                            "coding": [
                                {
                                    "system": "urn:oid:1.2.840.114350.1.72.1.7.7.10.728366.30035",
                                    "code": "2",
                                    "display": "Recipient"
                                }
                            ],
                            "text": "Recipient"
                        },
                        "url": "http://open.epic.com/FHIR/StructureDefinition/extension/transplant-donor-or-recipient"
                    },
                    {
                        "extension": [
                            {
                                "valueCodeableConcept": {
                                    "coding": [
                                        {
                                            "system": "urn:oid:1.2.840.114350.1.72.1.7.7.10.728366.30030",
                                            "code": "16",
                                            "display": "Kidney"
                                        }
                                    ],
                                    "text": "Kidney"
                                },
                                "url": "organ-class"
                            },
                            {
                                "valueReference": {
                                    "reference": "Practitioner/e4fBRdwCD6bWDI76z9Bn9WA3",
                                    "type": "Practitioner",
                                    "display": "Coordinator Phoenix, RN"
                                },
                                "url": "coordinator"
                            }
                        ],
                        "url": "http://open.epic.com/FHIR/StructureDefinition/extension/transplant-organ-coordinator"
                    },
                    {
                        "extension": [
                            {
                                "valueCodeableConcept": {
                                    "coding": [
                                        {
                                            "system": "urn:oid:1.2.840.114350.1.72.1.7.7.10.728366.30105",
                                            "code": "50",
                                            "display": "Transplanted"
                                        }
                                    ],
                                    "text": "Transplanted"
                                },
                                "url": "phase"
                            },
                            {
                                "valueString": "Active Follow-up",
                                "url": "status"
                            },
                            {
                                "valueDate": "2013-04-09",
                                "url": "effective"
                            }
                        ],
                        "url": "http://open.epic.com/FHIR/StructureDefinition/extension/transplant-phase-status"
                    },
                    {
                        "valueDate": "2006-04-09",
                        "url": "http://open.epic.com/FHIR/StructureDefinition/extension/transplant-event-transplanted-date"
                    },
                    {
                        "valueString": "University of Wisconsin Hospital and Clinics (Madison, WI)",
                        "url": "http://open.epic.com/FHIR/StructureDefinition/extension/transplant-center"
                    },
                    {
                        "valueReference": {
                            "reference": "BodyStructure/epkgWttEMVmolG8y2P9E5.bALmLkb4JXEAEgJHT2oeUfRZVbWtbky9mmZ.Ou147ZX3",
                            "type": "BodyStructure",
                            "display": "Right Kidney"
                        },
                        "url": "http://open.epic.com/FHIR/StructureDefinition/extension/transplant-organ"
                    }
                ],
                "status": "active",
                "type": [
                    {
                        "coding": [
                            {
                                "system": "urn:oid:1.2.840.114350.1.13.0.1.7.2.726668",
                                "code": "49",
                                "display": "Transplant"
                            },
                            {
                                "system": "urn:oid:1.2.840.114350.1.13.0.1.7.4.726668.130",
                                "code": "4",
                                "display": "Transplant"
                            }
                        ],
                        "text": "Transplant"
                    }
                ],
                "diagnosis": [
                    {
                        "condition": {
                            "reference": "Condition/e2RTgapVxYIr-DAg3CojtdQ3",
                            "type": "Condition",
                            "display": "Kidney Transplant Rejection Grade 1"
                        }
                    },
                    {
                        "condition": {
                            "reference": "Condition/e-BlUaLFFVaKDcG5hjIp33w3",
                            "type": "Condition",
                            "display": "Kidney Transplant Rejection Grade 1"
                        }
                    },
                    {
                        "condition": {
                            "reference": "Condition/e1rN9Y-1swP-WWT5fZY.qPA3",
                            "type": "Condition",
                            "display": "Kidney Transplant Rejection- recurrance orginal disease"
                        }
                    },
                    {
                        "condition": {
                            "reference": "Condition/eeRATuR2uBtj-q5nLHmWbKQ3",
                            "type": "Condition",
                            "display": "End-stage renal disease (CMS/HCC)"
                        }
                    },
                    {
                        "condition": {
                            "reference": "Condition/eOKXXrDMWTtVO4D5eAgchvw3",
                            "type": "Condition",
                            "display": "Mitral insufficiency (Resolved)"
                        }
                    },
                    {
                        "condition": {
                            "reference": "Condition/euY6cbyl0nzrwWfYcpKtJLg3",
                            "type": "Condition",
                            "display": "Hypophosphatemia (Resolved)"
                        }
                    },
                    {
                        "condition": {
                            "reference": "Condition/e98oVleERc1smtt3Hn6fs.Q3",
                            "type": "Condition",
                            "display": "Lymphocele (Resolved)"
                        }
                    },
                    {
                        "condition": {
                            "reference": "Condition/eoGRT9bhWmxsBaQ6safryjg3",
                            "type": "Condition",
                            "display": "Ileus (CMS/HCC) (Resolved)"
                        }
                    },
                    {
                        "condition": {
                            "reference": "Condition/ej3hbbLtx9Wdf9JWcPVKxfw3",
                            "type": "Condition",
                            "display": "Lymphocele (Resolved)"
                        }
                    }
                ],
                "patient": {
                    "reference": "Patient/eTqJUS7eXuLWa0OCWQ4D3SA3",
                    "type": "Patient",
                    "display": "Kidney, Kathryn C"
                },
                "period": {
                    "start": "2013-04-09"
                },
                "team": [
                    {
                        "reference": "CareTeam/eC3SOcC6x-CWVS8bb3gOYm2elP3L7.GKPkgL.5vNfqwQ3",
                        "type": "CareTeam"
                    }
                ]
            },
            "search": {
                "mode": "include"
            }
        },
        {
            "link": [
                {
                    "relation": "self",
                    "url": "https://appmarket.epic.com/interconnect-amcurprd-oauth/api/FHIR/R4/Patient/eTqJUS7eXuLWa0OCWQ4D3SA3"
                }
            ],
            "fullUrl": "https://appmarket.epic.com/interconnect-amcurprd-oauth/api/FHIR/R4/Patient/eTqJUS7eXuLWa0OCWQ4D3SA3",
            "resource": {
                "resourceType": "Patient",
                "id": "eTqJUS7eXuLWa0OCWQ4D3SA3",
                "extension": [
                    {
                        "extension": [
                            {
                                "valueCoding": {
                                    "system": "http://terminology.hl7.org/CodeSystem/v3-NullFlavor",
                                    "code": "UNK",
                                    "display": "Unknown"
                                },
                                "url": "ombCategory"
                            },
                            {
                                "valueString": "Unknown",
                                "url": "text"
                            }
                        ],
                        "url": "http://hl7.org/fhir/us/core/StructureDefinition/us-core-race"
                    },
                    {
                        "extension": [
                            {
                                "valueString": "Unknown",
                                "url": "text"
                            }
                        ],
                        "url": "http://hl7.org/fhir/us/core/StructureDefinition/us-core-ethnicity"
                    },
                    {
                        "valueCodeableConcept": {
                            "coding": [
                                {
                                    "system": "urn:oid:1.2.840.114350.1.13.0.1.7.10.698084.130.657370.19999000",
                                    "code": "female",
                                    "display": "female"
                                }
                            ]
                        },
                        "url": "http://open.epic.com/FHIR/StructureDefinition/extension/legal-sex"
                    },
                    {
                        "valueCodeableConcept": {
                            "coding": [
                                {
                                    "system": "urn:oid:1.2.840.114350.1.13.0.1.7.10.698084.130.657370.19999000",
                                    "code": "female",
                                    "display": "female"
                                }
                            ]
                        },
                        "url": "http://open.epic.com/FHIR/StructureDefinition/extension/sex-for-clinical-use"
                    },
                    {
                        "valueCode": "F",
                        "url": "http://hl7.org/fhir/us/core/StructureDefinition/us-core-birthsex"
                    }
                ],
                "identifier": [
                    {
                        "use": "usual",
                        "system": "urn:oid:2.16.840.1.113883.4.1",
                        "value": "461-21-4199"
                    },
                    {
                        "use": "usual",
                        "type": {
                            "text": "CEID"
                        },
                        "system": "urn:epic:apporchard.curprod",
                        "value": "AO18GBW57FQZXNH"
                    },
                    {
                        "use": "usual",
                        "type": {
                            "text": "EPIC"
                        },
                        "system": "urn:oid:1.2.840.114350.1.1",
                        "value": "E3119"
                    },
                    {
                        "use": "usual",
                        "type": {
                            "text": "EXTERNAL"
                        },
                        "system": "urn:oid:1.2.840.114350.1.13.0.1.7.2.698084",
                        "value": "Z5039"
                    },
                    {
                        "use": "usual",
                        "type": {
                            "text": "FHIR"
                        },
                        "system": "http://open.epic.com/FHIR/StructureDefinition/patient-dstu2-fhir-id",
                        "value": "TfVmWtTtChIya6Nc05NQkhF-wlkdUDvIRBUk90EstNMoB"
                    },
                    {
                        "use": "usual",
                        "type": {
                            "text": "FHIR STU3"
                        },
                        "system": "http://open.epic.com/FHIR/StructureDefinition/patient-fhir-id",
                        "value": "eTqJUS7eXuLWa0OCWQ4D3SA3"
                    },
                    {
                        "use": "usual",
                        "type": {
                            "text": "INTERNAL"
                        },
                        "system": "urn:oid:1.2.840.114350.1.13.0.1.7.2.698084",
                        "value": "     Z5039"
                    },
                    {
                        "use": "usual",
                        "type": {
                            "text": "MRN"
                        },
                        "system": "urn:oid:1.2.840.114350.1.13.0.1.7.5.737384.14",
                        "value": "202869"
                    }
                ],
                "active": true,
                "name": [
                    {
                        "use": "official",
                        "text": "Kathryn C Kidney",
                        "family": "Kidney",
                        "given": [
                            "Kathryn",
                            "C"
                        ]
                    },
                    {
                        "use": "usual",
                        "text": "Kathryn C Kidney",
                        "family": "Kidney",
                        "given": [
                            "Kathryn",
                            "C"
                        ]
                    }
                ],
                "gender": "female",
                "birthDate": "1966-04-09",
                "deceasedBoolean": false,
                "address": [
                    {
                        "use": "home",
                        "line": [
                            "123 Glen Oaks"
                        ],
                        "city": "Madison",
                        "state": "WI",
                        "postalCode": "53711",
                        "country": "US"
                    }
                ],
                "contact": [
                    {
                        "relationship": [
                            {
                                "coding": [
                                    {
                                        "system": "http://terminology.hl7.org/CodeSystem/v2-0131",
                                        "code": "E",
                                        "display": "Employer"
                                    }
                                ]
                            }
                        ],
                        "organization": {
                            "display": "Other"
                        }
                    }
                ],
                "managingOrganization": {
                    "reference": "Organization/enRyWnSP963FYDpoks4NHOA3",
                    "display": "Epic Hospital System"
                }
            },
            "search": {
                "mode": "include"
            }
        }
    ]
}