{
    "resourceType": "Bundle",
    "type": "searchset",
    "total": 31,
    "link": [
        {
            "relation": "self",
            "url": "https://appmarket.epic.com/interconnect-amcurprd-oauth/api/FHIR/R4/Encounter?_include=Encounter:condition&_include=Encounter:episodeOfCare&_include=Encounter:partOf&_include=Encounter:subject&_format=json&patient=e.13xKA1yn2NWujU2MqFPhw3"
        }
    ],
    "entry": [
        {
            "link": [
                {
                    "relation": "self",
                    "url": "https://appmarket.epic.com/interconnect-amcurprd-oauth/api/FHIR/R4/Encounter/esIxfrvX8MjHWFLI07-v90A3"
                }
            ],
            "fullUrl": "https://appmarket.epic.com/interconnect-amcurprd-oauth/api/FHIR/R4/Encounter/esIxfrvX8MjHWFLI07-v90A3",
            "resource": {
                "resourceType": "Encounter",
                "id": "esIxfrvX8MjHWFLI07-v90A3",
                "identifier": [
                    {
                        "use": "usual",
                        "system": "urn:oid:1.2.840.114350.1.13.0.1.7.3.698084.8",
                        "value": "37397"
                    }
                ],
                "status": "finished",
                "class": {
                    "system": "urn:oid:1.2.840.114350.1.72.1.7.7.10.696784.13260",
                    "code": "13",
                    "display": "Support OP Encounter"
                },
                "type": [
                    {
                        "coding": [
                            {
                                "system": "urn:oid:1.2.840.114350.1.13.0.1.7.10.698084.30",
                                "code": "111",
                                "display": "Orders Only"
                            }
                        ],
                        "text": "Orders Only"
                    }
                ],
                "subject": {
                    "reference": "Patient/e.13xKA1yn2NWujU2MqFPhw3",
                    "display": "Radiant, Angie"
                },
                "period": {
                    "start": "2021-10-21",
                    "end": "2021-10-21"
                },
                "location": [
                    {
                        "location": {
                            "reference": "Location/exzJSfs-2YYqMPilpdzkcdMVzw6TB9WJfeqFRVe.cpSo3",
                            "display": "EMC Cardiology Procedures"
                        }
                    }
                ]
            },
            "search": {
                "mode": "match"
            }
        },
        {
            "link": [
                {
                    "relation": "self",
                    "url": "https://appmarket.epic.com/interconnect-amcurprd-oauth/api/FHIR/R4/Encounter/eJSQB1dEJGQIVDGnMr3fgog3"
                }
            ],
            "fullUrl": "https://appmarket.epic.com/interconnect-amcurprd-oauth/api/FHIR/R4/Encounter/eJSQB1dEJGQIVDGnMr3fgog3",
            "resource": {
                "resourceType": "Encounter",
                "id": "eJSQB1dEJGQIVDGnMr3fgog3",
                "identifier": [
                    {
                        "use": "usual",
                        "system": "urn:oid:1.2.840.114350.1.13.0.1.7.3.698084.8",
                        "value": "35057"
                    }
                ],
                "status": "arrived",
                "class": {
                    "system": "urn:oid:1.2.840.114350.1.72.1.7.7.10.696784.13260",
                    "code": "5",
                    "display": "Appointment"
                },
                "type": [
                    {
                        "coding": [
                            {
                                "system": "urn:oid:1.2.840.114350.1.13.0.1.7.10.698084.10110",
                                "code": "102",
                                "display": "Outpatient"
                            }
                        ],
                        "text": "Outpatient"
                    },
                    {
                        "coding": [
                            {
                                "system": "urn:oid:1.2.840.114350.1.13.0.1.7.10.698084.30",
                                "code": "55",
                                "display": "Ancillary Procedure"
                            }
                        ],
                        "text": "Ancillary Procedure"
                    },
                    {
                        "coding": [
                            {
                                "system": "urn:oid:1.2.840.114350.1.13.0.1.7.2.808267",
                                "code": "18002",
                                "display": "Eye Photography"
                            }
                        ],
                        "text": "Eye Photography"
                    }
                ],
                "subject": {
                    "reference": "Patient/e.13xKA1yn2NWujU2MqFPhw3",
                    "display": "Radiant, Angie"
                },
                "participant": [
                    {
                        "type": [
                            {
                                "coding": [
                                    {
                                        "system": "http://hl7.org/fhir/v3/ParticipationType",
                                        "code": "REF",
                                        "display": "referrer"
                                    }
                                ],
                                "text": "referrer"
                            }
                        ],
                        "individual": {
                            "reference": "Practitioner/eFDLlPwY9Zi.6EHce8wkRmA3",
                            "type": "Practitioner",
                            "display": "Outpatient Physician Family Medicine, MD"
                        }
                    },
                    {
                        "period": {
                            "start": "2021-07-15T17:00:00Z",
                            "end": "2021-07-15T17:15:00Z"
                        },
                        "individual": {
                            "display": "EMC FUNDUS CAMERA"
                        }
                    }
                ],
                "period": {
                    "start": "2021-07-15T17:00:00Z",
                    "end": "2021-07-15T17:15:00Z"
                },
                "location": [
                    {
                        "location": {
                            "reference": "Location/e-wcBa2XT1rXn8fx6msLpdm1RBPCgwz54TyPjv5ZGJ.w3",
                            "display": "EMC Oph Sub-specialty"
                        }
                    }
                ]
            },
            "search": {
                "mode": "match"
            }
        },
        {
            "link": [
                {
                    "relation": "self",
                    "url": "https://appmarket.epic.com/interconnect-amcurprd-oauth/api/FHIR/R4/Encounter/elE7jY3kFMQIb.Ma-Po7xtQ3"
                }
            ],
            "fullUrl": "https://appmarket.epic.com/interconnect-amcurprd-oauth/api/FHIR/R4/Encounter/elE7jY3kFMQIb.Ma-Po7xtQ3",
            "resource": {
                "resourceType": "Encounter",
                "id": "elE7jY3kFMQIb.Ma-Po7xtQ3",
                "extension": [
                    {
                        "valueBoolean": false,
                        "url": "http://open.epic.com/FHIR/StructureDefinition/extension/accidentrelated"
                    }
                ],
                "identifier": [
                    {
                        "use": "usual",
                        "system": "urn:oid:1.2.840.114350.1.13.0.1.7.3.698084.8",
                        "value": "35056"
                    }
                ],
                "status": "arrived",
                "class": {
                    "system": "urn:oid:1.2.840.114350.1.72.1.7.7.10.696784.13260",
                    "code": "5",
                    "display": "Appointment"
                },
                "type": [
                    {
                        "coding": [
                            {
                                "system": "urn:oid:1.2.840.114350.1.13.0.1.7.10.698084.30",
                                "code": "50",
                                "display": "Appointment"
                            }
                        ],
                        "text": "Appointment"
                    },
                    {
                        "coding": [
                            {
                                "system": "urn:oid:1.2.840.114350.1.13.0.1.7.2.808267",
                                "code": "1004",
                                "display": "Office Visit"
                            }
                        ],
                        "text": "Office Visit"
                    }
                ],
                "subject": {
                    "reference": "Patient/e.13xKA1yn2NWujU2MqFPhw3",
                    "display": "Radiant, Angie"
                },
                "participant": [
                    {
                        "period": {
                            "start": "2021-07-15T16:45:00Z",
                            "end": "2021-07-15T17:00:00Z"
                        },
                        "individual": {
                            "reference": "Practitioner/eFDLlPwY9Zi.6EHce8wkRmA3",
                            "display": "Outpatient Physician Family Medicine, MD"
                        }
                    }
                ],
                "period": {
                    "start": "2021-07-15T16:45:00Z",
                    "end": "2021-07-15T17:00:00Z"
                },
                "location": [
                    {
                        "location": {
                            "reference": "Location/e4W4rmGe9QzuGm2Dy4NBqVc0KDe6yGld6HW95UuN-Qd03",
                            "display": "EMC Family Medicine"
                        }
                    }
                ]
            },
            "search": {
                "mode": "match"
            }
        },
        {
            "link": [
                {
                    "relation": "self",
                    "url": "https://appmarket.epic.com/interconnect-amcurprd-oauth/api/FHIR/R4/Encounter/e8JSR-Z-CHMHDZi7pinCIrA3"
                }
            ],
            "fullUrl": "https://appmarket.epic.com/interconnect-amcurprd-oauth/api/FHIR/R4/Encounter/e8JSR-Z-CHMHDZi7pinCIrA3",
            "resource": {
                "resourceType": "Encounter",
                "id": "e8JSR-Z-CHMHDZi7pinCIrA3",
                "identifier": [
                    {
                        "use": "usual",
                        "system": "urn:oid:1.2.840.114350.1.13.0.1.7.3.698084.8",
                        "value": "26580"
                    }
                ],
                "status": "unknown",
                "class": {
                    "system": "urn:oid:1.2.840.114350.1.72.1.7.7.10.696784.13260",
                    "code": "13",
                    "display": "Support OP Encounter"
                },
                "type": [
                    {
                        "coding": [
                            {
                                "system": "urn:oid:1.2.840.114350.1.13.0.1.7.10.698084.30",
                                "code": "40",
                                "display": "Wait List"
                            }
                        ],
                        "text": "Wait List"
                    }
                ],
                "subject": {
                    "reference": "Patient/e.13xKA1yn2NWujU2MqFPhw3",
                    "display": "Radiant, Angie"
                },
                "period": {
                    "start": "2017-12-11",
                    "end": "2017-12-11"
                },
                "location": [
                    {
                        "location": {
                            "reference": "Location/ed11n4-i8oztrjpHIELXPbcvQ0XhK7Rf0YuVpyGAIoPo3",
                            "display": "EMC Breast Imaging"
                        }
                    }
                ]
            },
            "search": {
                "mode": "match"
            }
        },
        {
            "link": [
                {
                    "relation": "self",
                    "url": "https://appmarket.epic.com/interconnect-amcurprd-oauth/api/FHIR/R4/Encounter/ef4.30fkfDKPHZGyi2GlUDg3"
                }
            ],
            "fullUrl": "https://appmarket.epic.com/interconnect-amcurprd-oauth/api/FHIR/R4/Encounter/ef4.30fkfDKPHZGyi2GlUDg3",
            "resource": {
                "resourceType": "Encounter",
                "id": "ef4.30fkfDKPHZGyi2GlUDg3",
                "identifier": [
                    {
                        "use": "usual",
                        "system": "urn:oid:1.2.840.114350.1.13.0.1.7.3.698084.8",
                        "value": "25707"
                    }
                ],
                "status": "unknown",
                "class": {
                    "system": "urn:oid:1.2.840.114350.1.72.1.7.7.10.696784.13260",
                    "code": "13",
                    "display": "Support OP Encounter"
                },
                "type": [
                    {
                        "coding": [
                            {
                                "system": "urn:oid:1.2.840.114350.1.13.0.1.7.10.698084.30",
                                "code": "40",
                                "display": "Wait List"
                            }
                        ],
                        "text": "Wait List"
                    }
                ],
                "subject": {
                    "reference": "Patient/e.13xKA1yn2NWujU2MqFPhw3",
                    "display": "Radiant, Angie"
                },
                "period": {
                    "start": "2017-07-29",
                    "end": "2017-07-29"
                },
                "location": [
                    {
                        "location": {
                            "reference": "Location/eLhKFc3iDeY6-hXf5i.OaMou5OzNHYkj.U615OO9oDD43",
                            "display": "EMC X-Ray Imaging"
                        }
                    }
                ]
            },
            "search": {
                "mode": "match"
            }
        },
        {
            "link": [
                {
                    "relation": "self",
                    "url": "https://appmarket.epic.com/interconnect-amcurprd-oauth/api/FHIR/R4/Encounter/ea9ek7wrrpgZwKfu2vssppA3"
                }
            ],
            "fullUrl": "https://appmarket.epic.com/interconnect-amcurprd-oauth/api/FHIR/R4/Encounter/ea9ek7wrrpgZwKfu2vssppA3",
            "resource": {
                "resourceType": "Encounter",
                "id": "ea9ek7wrrpgZwKfu2vssppA3",
                "identifier": [
                    {
                        "use": "usual",
                        "system": "urn:oid:1.2.840.114350.1.13.0.1.7.3.698084.8",
                        "value": "26581"
                    }
                ],
                "status": "in-progress",
                "class": {
                    "system": "urn:oid:1.2.840.114350.1.72.1.7.7.10.696784.13260",
                    "code": "4",
                    "display": "HOV"
                },
                "type": [
                    {
                        "coding": [
                            {
                                "system": "urn:oid:1.2.840.114350.1.13.0.1.7.10.698084.10110",
                                "code": "102",
                                "display": "Outpatient"
                            }
                        ],
                        "text": "Outpatient"
                    },
                    {
                        "coding": [
                            {
                                "system": "urn:oid:1.2.840.114350.1.13.0.1.7.10.698084.30",
                                "code": "3",
                                "display": "Hospital Encounter"
                            }
                        ],
                        "text": "Hospital Encounter"
                    },
                    {
                        "coding": [
                            {
                                "system": "urn:oid:1.2.840.114350.1.13.0.1.7.2.808267",
                                "code": "1050605",
                                "display": "Breast Imaging Screening Bilateral"
                            }
                        ],
                        "text": "Breast Imaging Screening Bilateral"
                    }
                ],
                "subject": {
                    "reference": "Patient/e.13xKA1yn2NWujU2MqFPhw3",
                    "display": "Radiant, Angie"
                },
                "participant": [
                    {
                        "type": [
                            {
                                "coding": [
                                    {
                                        "system": "http://hl7.org/fhir/v3/ParticipationType",
                                        "code": "REF",
                                        "display": "referrer"
                                    }
                                ],
                                "text": "referrer"
                            }
                        ],
                        "individual": {
                            "reference": "Practitioner/ePwlHXYFFHLNL9so.ugVNFQ3",
                            "type": "Practitioner",
                            "display": "Radiologist Radiology, MD"
                        }
                    },
                    {
                        "period": {
                            "start": "2016-10-11T18:20:00Z",
                            "end": "2016-10-11T18:35:00Z"
                        },
                        "individual": {
                            "display": "EMH MAMMO 1"
                        }
                    }
                ],
                "period": {
                    "start": "2016-10-11T18:17:55Z"
                },
                "account": [
                    {
                        "identifier": {
                            "system": "urn:oid:1.2.840.114350.1.13.0.1.7.2.726582",
                            "value": "1000421"
                        },
                        "display": "RADIANT,ANGIE"
                    }
                ],
                "hospitalization": {
                    "extension": [
                        {
                            "valueDateTime": "2016-10-11T18:17:55Z",
                            "url": "http://open.epic.com/FHIR/StructureDefinition/extension/observation-datetime"
                        }
                    ]
                },
                "location": [
                    {
                        "location": {
                            "reference": "Location/eD8ikaFBKcpOvpRyCKpgtNhQ7aB5JuL5gRN0tzq4vFYc3",
                            "display": "EMH Breast Imaging"
                        }
                    },
                    {
                        "location": {
                            "reference": "Location/eD8ikaFBKcpOvpRyCKpgtNhQ7aB5JuL5gRN0tzq4vFYc3",
                            "display": "EMH Breast Imaging"
                        }
                    },
                    {
                        "location": {
                            "reference": "Location/eQSOrLdbVrMRc68KBcTBG4A3",
                            "display": "Epic Hospital System"
                        }
                    }
                ]
            },
            "search": {
                "mode": "match"
            }
        },
        {
            "link": [
                {
                    "relation": "self",
                    "url": "https://appmarket.epic.com/interconnect-amcurprd-oauth/api/FHIR/R4/Encounter/ekjnyNDs1XztReKn.radppQ3"
                }
            ],
            "fullUrl": "https://appmarket.epic.com/interconnect-amcurprd-oauth/api/FHIR/R4/Encounter/ekjnyNDs1XztReKn.radppQ3",
            "resource": {
                "resourceType": "Encounter",
                "id": "ekjnyNDs1XztReKn.radppQ3",
                "identifier": [
                    {
                        "use": "usual",
                        "system": "urn:oid:1.2.840.114350.1.13.0.1.7.3.698084.8",
                        "value": "26579"
                    }
                ],
                "status": "in-progress",
                "class": {
                    "system": "urn:oid:1.2.840.114350.1.72.1.7.7.10.696784.13260",
                    "code": "13",
                    "display": "Support OP Encounter"
                },
                "type": [
                    {
                        "coding": [
                            {
                                "system": "urn:oid:1.2.840.114350.1.13.0.1.7.10.698084.30",
                                "code": "117",
                                "display": "Ancillary Orders"
                            }
                        ],
                        "text": "Ancillary Orders"
                    }
                ],
                "subject": {
                    "reference": "Patient/e.13xKA1yn2NWujU2MqFPhw3",
                    "display": "Radiant, Angie"
                },
                "period": {
                    "start": "2016-10-11",
                    "end": "2016-10-11"
                },
                "location": [
                    {
                        "location": {
                            "reference": "Location/e6.GHPEJ3Jrk18e14wi2AJ5vFRqvLa0ZB6qH40N4UgB03",
                            "display": "EMH X-Ray Imaging"
                        }
                    }
                ]
            },
            "search": {
                "mode": "match"
            }
        },
        {
            "link": [
                {
                    "relation": "self",
                    "url": "https://appmarket.epic.com/interconnect-amcurprd-oauth/api/FHIR/R4/Encounter/eeowgYGnucQPDamm04TyNcQ3"
                }
            ],
            "fullUrl": "https://appmarket.epic.com/interconnect-amcurprd-oauth/api/FHIR/R4/Encounter/eeowgYGnucQPDamm04TyNcQ3",
            "resource": {
                "resourceType": "Encounter",
                "id": "eeowgYGnucQPDamm04TyNcQ3",
                "identifier": [
                    {
                        "use": "usual",
                        "system": "urn:oid:1.2.840.114350.1.13.0.1.7.3.698084.8",
                        "value": "26560"
                    }
                ],
                "status": "in-progress",
                "class": {
                    "system": "urn:oid:1.2.840.114350.1.72.1.7.7.10.696784.13260",
                    "code": "13",
                    "display": "Support OP Encounter"
                },
                "type": [
                    {
                        "coding": [
                            {
                                "system": "urn:oid:1.2.840.114350.1.13.0.1.7.10.698084.30",
                                "code": "117",
                                "display": "Ancillary Orders"
                            }
                        ],
                        "text": "Ancillary Orders"
                    }
                ],
                "subject": {
                    "reference": "Patient/e.13xKA1yn2NWujU2MqFPhw3",
                    "display": "Radiant, Angie"
                },
                "period": {
                    "start": "2016-09-07",
                    "end": "2016-09-07"
                },
                "location": [
                    {
                        "location": {
                            "reference": "Location/e6.GHPEJ3Jrk18e14wi2AJ5vFRqvLa0ZB6qH40N4UgB03",
                            "display": "EMH X-Ray Imaging"
                        }
                    }
                ]
            },
            "search": {
                "mode": "match"
            }
        },
        {
            "link": [
                {
                    "relation": "self",
                    "url": "https://appmarket.epic.com/interconnect-amcurprd-oauth/api/FHIR/R4/Encounter/e80UlN7oQ29b2WNrZ2bvjNQ3"
                }
            ],
            "fullUrl": "https://appmarket.epic.com/interconnect-amcurprd-oauth/api/FHIR/R4/Encounter/e80UlN7oQ29b2WNrZ2bvjNQ3",
            "resource": {
                "resourceType": "Encounter",
                "id": "e80UlN7oQ29b2WNrZ2bvjNQ3",
                "identifier": [
                    {
                        "use": "usual",
                        "system": "urn:oid:1.2.840.114350.1.13.0.1.7.3.698084.8",
                        "value": "26558"
                    }
                ],
                "status": "in-progress",
                "class": {
                    "system": "urn:oid:1.2.840.114350.1.72.1.7.7.10.696784.13260",
                    "code": "13",
                    "display": "Support OP Encounter"
                },
                "type": [
                    {
                        "coding": [
                            {
                                "system": "urn:oid:1.2.840.114350.1.13.0.1.7.10.698084.30",
                                "code": "117",
                                "display": "Ancillary Orders"
                            }
                        ],
                        "text": "Ancillary Orders"
                    }
                ],
                "subject": {
                    "reference": "Patient/e.13xKA1yn2NWujU2MqFPhw3",
                    "display": "Radiant, Angie"
                },
                "period": {
                    "start": "2016-09-07",
                    "end": "2016-09-07"
                },
                "location": [
                    {
                        "location": {
                            "reference": "Location/e6.GHPEJ3Jrk18e14wi2AJ5vFRqvLa0ZB6qH40N4UgB03",
                            "display": "EMH X-Ray Imaging"
                        }
                    }
                ]
            },
            "search": {
                "mode": "match"
            }
        },
        {
            "link": [
                {
                    "relation": "self",
                    "url": "https://appmarket.epic.com/interconnect-amcurprd-oauth/api/FHIR/R4/Encounter/ejrORDU81ybF23u6Vtg1D4w3"
                }
            ],
            "fullUrl": "https://appmarket.epic.com/interconnect-amcurprd-oauth/api/FHIR/R4/Encounter/ejrORDU81ybF23u6Vtg1D4w3",
            "resource": {
                "resourceType": "Encounter",
                "id": "ejrORDU81ybF23u6Vtg1D4w3",
                "identifier": [
                    {
                        "use": "usual",
                        "system": "urn:oid:1.2.840.114350.1.13.0.1.7.3.698084.8",
                        "value": "26555"
                    }
                ],
                "status": "in-progress",
                "class": {
                    "system": "urn:oid:1.2.840.114350.1.72.1.7.7.10.696784.13260",
                    "code": "4",
                    "display": "HOV"
                },
                "type": [
                    {
                        "coding": [
                            {
                                "system": "urn:oid:1.2.840.114350.1.13.0.1.7.10.698084.10110",
                                "code": "102",
                                "display": "Outpatient"
                            }
                        ],
                        "text": "Outpatient"
                    },
                    {
                        "coding": [
                            {
                                "system": "urn:oid:1.2.840.114350.1.13.0.1.7.10.698084.30",
                                "code": "3",
                                "display": "Hospital Encounter"
                            }
                        ],
                        "text": "Hospital Encounter"
                    },
                    {
                        "coding": [
                            {
                                "system": "urn:oid:1.2.840.114350.1.13.0.1.7.2.808267",
                                "code": "1050652",
                                "display": "Interventional Radiology Angiogram Extremity Right"
                            }
                        ],
                        "text": "Interventional Radiology Angiogram Extremity Right"
                    },
                    {
                        "coding": [
                            {
                                "system": "urn:oid:1.2.840.114350.1.13.0.1.7.10.698084.18875",
                                "code": "3",
                                "display": "Elective"
                            }
                        ],
                        "text": "Elective"
                    }
                ],
                "subject": {
                    "reference": "Patient/e.13xKA1yn2NWujU2MqFPhw3",
                    "display": "Radiant, Angie"
                },
                "participant": [
                    {
                        "type": [
                            {
                                "coding": [
                                    {
                                        "system": "http://hl7.org/fhir/v3/ParticipationType",
                                        "code": "REF",
                                        "display": "referrer"
                                    }
                                ],
                                "text": "referrer"
                            }
                        ],
                        "individual": {
                            "reference": "Practitioner/eM5CWtq15N0WJeuCet5bJlQ3",
                            "type": "Practitioner",
                            "display": "Physician Family Medicine, MD"
                        }
                    },
                    {
                        "period": {
                            "start": "2016-09-07T13:20:00Z",
                            "end": "2016-09-07T14:20:00Z"
                        },
                        "individual": {
                            "display": "EMH IR 1"
                        }
                    }
                ],
                "period": {
                    "start": "2016-09-07T13:17:35Z"
                },
                "account": [
                    {
                        "identifier": {
                            "system": "urn:oid:1.2.840.114350.1.13.0.1.7.2.726582",
                            "value": "1000401"
                        },
                        "display": "RADIANT,ANGIE"
                    }
                ],
                "hospitalization": {
                    "extension": [
                        {
                            "valueDateTime": "2016-09-07T13:17:35Z",
                            "url": "http://open.epic.com/FHIR/StructureDefinition/extension/observation-datetime"
                        }
                    ],
                    "admitSource": {
                        "coding": [
                            {
                                "system": "urn:oid:1.2.840.114350.1.13.0.1.7.10.698084.10310",
                                "code": "2",
                                "display": "Physician or Clinic Office"
                            }
                        ],
                        "text": "Physician or Clinic Office"
                    },
                    "dischargeDisposition": {
                        "coding": [
                            {
                                "system": "urn:oid:1.2.840.114350.1.13.0.1.7.10.698084.18888",
                                "code": "1",
                                "display": "Home or Self Care"
                            }
                        ],
                        "text": "Home or Self Care"
                    }
                },
                "location": [
                    {
                        "location": {
                            "reference": "Location/ebMDkIoNMQln3iIzo3nwSkgNSuWNrpYgObEUVctbTF5s3",
                            "display": "EMH IR Imaging"
                        }
                    },
                    {
                        "location": {
                            "reference": "Location/ebMDkIoNMQln3iIzo3nwSkgNSuWNrpYgObEUVctbTF5s3",
                            "display": "EMH IR Imaging"
                        }
                    },
                    {
                        "location": {
                            "reference": "Location/eQSOrLdbVrMRc68KBcTBG4A3",
                            "display": "Epic Hospital System"
                        }
                    }
                ]
            },
            "search": {
                "mode": "match"
            }
        },
        {
            "link": [
                {
                    "relation": "self",
                    "url": "https://appmarket.epic.com/interconnect-amcurprd-oauth/api/FHIR/R4/Encounter/eNV8iESARz.oM8HFJbybnRQ3"
                }
            ],
            "fullUrl": "https://appmarket.epic.com/interconnect-amcurprd-oauth/api/FHIR/R4/Encounter/eNV8iESARz.oM8HFJbybnRQ3",
            "resource": {
                "resourceType": "Encounter",
                "id": "eNV8iESARz.oM8HFJbybnRQ3",
                "identifier": [
                    {
                        "use": "usual",
                        "system": "urn:oid:1.2.840.114350.1.13.0.1.7.3.698084.8",
                        "value": "26553"
                    }
                ],
                "status": "in-progress",
                "class": {
                    "system": "urn:oid:1.2.840.114350.1.72.1.7.7.10.696784.13260",
                    "code": "13",
                    "display": "Support OP Encounter"
                },
                "type": [
                    {
                        "coding": [
                            {
                                "system": "urn:oid:1.2.840.114350.1.13.0.1.7.10.698084.30",
                                "code": "117",
                                "display": "Ancillary Orders"
                            }
                        ],
                        "text": "Ancillary Orders"
                    }
                ],
                "subject": {
                    "reference": "Patient/e.13xKA1yn2NWujU2MqFPhw3",
                    "display": "Radiant, Angie"
                },
                "period": {
                    "start": "2016-09-07",
                    "end": "2016-09-07"
                },
                "location": [
                    {
                        "location": {
                            "reference": "Location/ebMDkIoNMQln3iIzo3nwSkgNSuWNrpYgObEUVctbTF5s3",
                            "display": "EMH IR Imaging"
                        }
                    }
                ]
            },
            "search": {
                "mode": "match"
            }
        },
        {
            "link": [
                {
                    "relation": "self",
                    "url": "https://appmarket.epic.com/interconnect-amcurprd-oauth/api/FHIR/R4/Encounter/eBJuEiuHm7VV0Dar3fRXzcw3"
                }
            ],
            "fullUrl": "https://appmarket.epic.com/interconnect-amcurprd-oauth/api/FHIR/R4/Encounter/eBJuEiuHm7VV0Dar3fRXzcw3",
            "resource": {
                "resourceType": "Encounter",
                "id": "eBJuEiuHm7VV0Dar3fRXzcw3",
                "identifier": [
                    {
                        "use": "usual",
                        "system": "urn:oid:1.2.840.114350.1.13.0.1.7.3.698084.8",
                        "value": "25706"
                    }
                ],
                "status": "in-progress",
                "class": {
                    "system": "urn:oid:1.2.840.114350.1.72.1.7.7.10.696784.13260",
                    "code": "13",
                    "display": "Support OP Encounter"
                },
                "type": [
                    {
                        "coding": [
                            {
                                "system": "urn:oid:1.2.840.114350.1.13.0.1.7.10.698084.30",
                                "code": "117",
                                "display": "Ancillary Orders"
                            }
                        ],
                        "text": "Ancillary Orders"
                    }
                ],
                "subject": {
                    "reference": "Patient/e.13xKA1yn2NWujU2MqFPhw3",
                    "display": "Radiant, Angie"
                },
                "period": {
                    "start": "2016-07-29",
                    "end": "2016-07-29"
                },
                "location": [
                    {
                        "location": {
                            "reference": "Location/e6.GHPEJ3Jrk18e14wi2AJ5vFRqvLa0ZB6qH40N4UgB03",
                            "display": "EMH X-Ray Imaging"
                        }
                    }
                ]
            },
            "search": {
                "mode": "match"
            }
        },
        {
            "link": [
                {
                    "relation": "self",
                    "url": "https://appmarket.epic.com/interconnect-amcurprd-oauth/api/FHIR/R4/Encounter/e8EaGpatAW-onP.EazCXFWw3"
                }
            ],
            "fullUrl": "https://appmarket.epic.com/interconnect-amcurprd-oauth/api/FHIR/R4/Encounter/e8EaGpatAW-onP.EazCXFWw3",
            "resource": {
                "resourceType": "Encounter",
                "id": "e8EaGpatAW-onP.EazCXFWw3",
                "identifier": [
                    {
                        "use": "usual",
                        "system": "urn:oid:1.2.840.114350.1.13.0.1.7.3.698084.8",
                        "value": "25697"
                    }
                ],
                "status": "in-progress",
                "class": {
                    "system": "urn:oid:1.2.840.114350.1.72.1.7.7.10.696784.13260",
                    "code": "4",
                    "display": "HOV"
                },
                "type": [
                    {
                        "coding": [
                            {
                                "system": "urn:oid:1.2.840.114350.1.13.0.1.7.10.698084.10110",
                                "code": "102",
                                "display": "Outpatient"
                            }
                        ],
                        "text": "Outpatient"
                    },
                    {
                        "coding": [
                            {
                                "system": "urn:oid:1.2.840.114350.1.13.0.1.7.10.698084.30",
                                "code": "3",
                                "display": "Hospital Encounter"
                            }
                        ],
                        "text": "Hospital Encounter"
                    },
                    {
                        "coding": [
                            {
                                "system": "urn:oid:1.2.840.114350.1.13.0.1.7.2.808267",
                                "code": "1050794",
                                "display": "CT Abdomen Pelvis with Contrast"
                            }
                        ],
                        "text": "CT Abdomen Pelvis with Contrast"
                    }
                ],
                "subject": {
                    "reference": "Patient/e.13xKA1yn2NWujU2MqFPhw3",
                    "display": "Radiant, Angie"
                },
                "participant": [
                    {
                        "type": [
                            {
                                "coding": [
                                    {
                                        "system": "http://hl7.org/fhir/v3/ParticipationType",
                                        "code": "REF",
                                        "display": "referrer"
                                    }
                                ],
                                "text": "referrer"
                            }
                        ],
                        "individual": {
                            "reference": "Practitioner/eM5CWtq15N0WJeuCet5bJlQ3",
                            "type": "Practitioner",
                            "display": "Physician Family Medicine, MD"
                        }
                    },
                    {
                        "period": {
                            "start": "2016-07-19T15:00:00Z",
                            "end": "2016-07-19T15:30:00Z"
                        },
                        "individual": {
                            "display": "EMH CT 2"
                        }
                    }
                ],
                "period": {
                    "start": "2016-07-19T14:17:36Z"
                },
                "account": [
                    {
                        "identifier": {
                            "system": "urn:oid:1.2.840.114350.1.13.0.1.7.2.726582",
                            "value": "1000389"
                        },
                        "display": "RADIANT,ANGIE"
                    }
                ],
                "hospitalization": {
                    "extension": [
                        {
                            "valueDateTime": "2016-07-19T14:17:36Z",
                            "url": "http://open.epic.com/FHIR/StructureDefinition/extension/observation-datetime"
                        }
                    ]
                },
                "location": [
                    {
                        "location": {
                            "reference": "Location/e4OG8BMMoOhcLXWmFuBvm8NlbjHAXxL7ZhxNIjoGyor43",
                            "display": "EMH CT Imaging"
                        }
                    },
                    {
                        "location": {
                            "reference": "Location/e4OG8BMMoOhcLXWmFuBvm8NlbjHAXxL7ZhxNIjoGyor43",
                            "display": "EMH CT Imaging"
                        }
                    },
                    {
                        "location": {
                            "reference": "Location/eQSOrLdbVrMRc68KBcTBG4A3",
                            "display": "Epic Hospital System"
                        }
                    }
                ]
            },
            "search": {
                "mode": "match"
            }
        },
        {
            "link": [
                {
                    "relation": "self",
                    "url": "https://appmarket.epic.com/interconnect-amcurprd-oauth/api/FHIR/R4/Encounter/e0x-cIfKwT8Fw4upe-pBrgA3"
                }
            ],
            "fullUrl": "https://appmarket.epic.com/interconnect-amcurprd-oauth/api/FHIR/R4/Encounter/e0x-cIfKwT8Fw4upe-pBrgA3",
            "resource": {
                "resourceType": "Encounter",
                "id": "e0x-cIfKwT8Fw4upe-pBrgA3",
                "identifier": [
                    {
                        "use": "usual",
                        "system": "urn:oid:1.2.840.114350.1.13.0.1.7.3.698084.8",
                        "value": "25696"
                    }
                ],
                "status": "in-progress",
                "class": {
                    "system": "urn:oid:1.2.840.114350.1.72.1.7.7.10.696784.13260",
                    "code": "4",
                    "display": "HOV"
                },
                "type": [
                    {
                        "coding": [
                            {
                                "system": "urn:oid:1.2.840.114350.1.13.0.1.7.10.698084.10110",
                                "code": "102",
                                "display": "Outpatient"
                            }
                        ],
                        "text": "Outpatient"
                    },
                    {
                        "coding": [
                            {
                                "system": "urn:oid:1.2.840.114350.1.13.0.1.7.10.698084.30",
                                "code": "3",
                                "display": "Hospital Encounter"
                            }
                        ],
                        "text": "Hospital Encounter"
                    },
                    {
                        "coding": [
                            {
                                "system": "urn:oid:1.2.840.114350.1.13.0.1.7.2.808267",
                                "code": "1050202",
                                "display": "CT Chest with Contrast"
                            }
                        ],
                        "text": "CT Chest with Contrast"
                    },
                    {
                        "coding": [
                            {
                                "system": "urn:oid:1.2.840.114350.1.13.0.1.7.10.698084.18875",
                                "code": "3",
                                "display": "Elective"
                            }
                        ],
                        "text": "Elective"
                    }
                ],
                "subject": {
                    "reference": "Patient/e.13xKA1yn2NWujU2MqFPhw3",
                    "display": "Radiant, Angie"
                },
                "participant": [
                    {
                        "type": [
                            {
                                "coding": [
                                    {
                                        "system": "http://hl7.org/fhir/v3/ParticipationType",
                                        "code": "REF",
                                        "display": "referrer"
                                    }
                                ],
                                "text": "referrer"
                            }
                        ],
                        "individual": {
                            "reference": "Practitioner/eM5CWtq15N0WJeuCet5bJlQ3",
                            "type": "Practitioner",
                            "display": "Physician Family Medicine, MD"
                        }
                    },
                    {
                        "period": {
                            "start": "2016-07-19T14:30:00Z",
                            "end": "2016-07-19T15:00:00Z"
                        },
                        "individual": {
                            "display": "EMH CT 1"
                        }
                    }
                ],
                "period": {
                    "start": "2016-07-19T14:16:09Z"
                },
                "account": [
                    {
                        "identifier": {
                            "system": "urn:oid:1.2.840.114350.1.13.0.1.7.2.726582",
                            "value": "1000389"
                        },
                        "display": "RADIANT,ANGIE"
                    }
                ],
                "hospitalization": {
                    "extension": [
                        {
                            "valueDateTime": "2016-07-19T14:16:09Z",
                            "url": "http://open.epic.com/FHIR/StructureDefinition/extension/observation-datetime"
                        }
                    ],
                    "admitSource": {
                        "coding": [
                            {
                                "system": "urn:oid:1.2.840.114350.1.13.0.1.7.10.698084.10310",
                                "code": "2",
                                "display": "Physician or Clinic Office"
                            }
                        ],
                        "text": "Physician or Clinic Office"
                    },
                    "dischargeDisposition": {
                        "coding": [
                            {
                                "system": "urn:oid:1.2.840.114350.1.13.0.1.7.10.698084.18888",
                                "code": "1",
                                "display": "Home or Self Care"
                            }
                        ],
                        "text": "Home or Self Care"
                    }
                },
                "location": [
                    {
                        "location": {
                            "reference": "Location/e4OG8BMMoOhcLXWmFuBvm8NlbjHAXxL7ZhxNIjoGyor43",
                            "display": "EMH CT Imaging"
                        }
                    },
                    {
                        "location": {
                            "reference": "Location/e4OG8BMMoOhcLXWmFuBvm8NlbjHAXxL7ZhxNIjoGyor43",
                            "display": "EMH CT Imaging"
                        }
                    },
                    {
                        "location": {
                            "reference": "Location/eQSOrLdbVrMRc68KBcTBG4A3",
                            "display": "Epic Hospital System"
                        }
                    }
                ]
            },
            "search": {
                "mode": "match"
            }
        },
        {
            "link": [
                {
                    "relation": "self",
                    "url": "https://appmarket.epic.com/interconnect-amcurprd-oauth/api/FHIR/R4/Encounter/eM2LuKaxxxpXJylWtw7Be1g3"
                }
            ],
            "fullUrl": "https://appmarket.epic.com/interconnect-amcurprd-oauth/api/FHIR/R4/Encounter/eM2LuKaxxxpXJylWtw7Be1g3",
            "resource": {
                "resourceType": "Encounter",
                "id": "eM2LuKaxxxpXJylWtw7Be1g3",
                "identifier": [
                    {
                        "use": "usual",
                        "system": "urn:oid:1.2.840.114350.1.13.0.1.7.3.698084.8",
                        "value": "25695"
                    }
                ],
                "status": "in-progress",
                "class": {
                    "system": "urn:oid:1.2.840.114350.1.72.1.7.7.10.696784.13260",
                    "code": "13",
                    "display": "Support OP Encounter"
                },
                "type": [
                    {
                        "coding": [
                            {
                                "system": "urn:oid:1.2.840.114350.1.13.0.1.7.10.698084.30",
                                "code": "117",
                                "display": "Ancillary Orders"
                            }
                        ],
                        "text": "Ancillary Orders"
                    }
                ],
                "subject": {
                    "reference": "Patient/e.13xKA1yn2NWujU2MqFPhw3",
                    "display": "Radiant, Angie"
                },
                "period": {
                    "start": "2016-07-19",
                    "end": "2016-07-19"
                },
                "location": [
                    {
                        "location": {
                            "reference": "Location/e4OG8BMMoOhcLXWmFuBvm8NlbjHAXxL7ZhxNIjoGyor43",
                            "display": "EMH CT Imaging"
                        }
                    }
                ]
            },
            "search": {
                "mode": "match"
            }
        },
        {
            "link": [
                {
                    "relation": "self",
                    "url": "https://appmarket.epic.com/interconnect-amcurprd-oauth/api/FHIR/R4/Encounter/ezfXheJG65JcsqxCEBdGLMQ3"
                }
            ],
            "fullUrl": "https://appmarket.epic.com/interconnect-amcurprd-oauth/api/FHIR/R4/Encounter/ezfXheJG65JcsqxCEBdGLMQ3",
            "resource": {
                "resourceType": "Encounter",
                "id": "ezfXheJG65JcsqxCEBdGLMQ3",
                "identifier": [
                    {
                        "use": "usual",
                        "system": "urn:oid:1.2.840.114350.1.13.0.1.7.3.698084.8",
                        "value": "12024"
                    }
                ],
                "status": "cancelled",
                "class": {
                    "system": "urn:oid:1.2.840.114350.1.72.1.7.7.10.696784.13260",
                    "code": "3",
                    "display": "Admission"
                },
                "type": [
                    {
                        "coding": [
                            {
                                "system": "urn:oid:1.2.840.114350.1.13.0.1.7.10.698084.10110",
                                "code": "102",
                                "display": "Outpatient"
                            }
                        ],
                        "text": "Outpatient"
                    },
                    {
                        "coding": [
                            {
                                "system": "urn:oid:1.2.840.114350.1.13.0.1.7.10.698084.30",
                                "code": "3",
                                "display": "Hospital Encounter"
                            }
                        ],
                        "text": "Hospital Encounter"
                    }
                ],
                "subject": {
                    "reference": "Patient/e.13xKA1yn2NWujU2MqFPhw3",
                    "display": "Radiant, Angie"
                },
                "participant": [
                    {
                        "type": [
                            {
                                "coding": [
                                    {
                                        "system": "http://hl7.org/fhir/v3/ParticipationType",
                                        "code": "ADM",
                                        "display": "admitter"
                                    }
                                ],
                                "text": "admitter"
                            }
                        ],
                        "individual": {
                            "reference": "Practitioner/ekK9AsfvYqLnReaTbTwFKWg3",
                            "type": "Practitioner"
                        }
                    },
                    {
                        "type": [
                            {
                                "coding": [
                                    {
                                        "system": "http://hl7.org/fhir/v3/ParticipationType",
                                        "code": "ATND",
                                        "display": "attender"
                                    }
                                ],
                                "text": "attender"
                            }
                        ],
                        "individual": {
                            "reference": "Practitioner/ekK9AsfvYqLnReaTbTwFKWg3",
                            "type": "Practitioner"
                        }
                    }
                ],
                "period": {
                    "start": "2013-11-08",
                    "end": "2013-11-08"
                },
                "location": [
                    {
                        "location": {
                            "reference": "Location/ebMDkIoNMQln3iIzo3nwSkgNSuWNrpYgObEUVctbTF5s3",
                            "display": "EMH IR Imaging"
                        }
                    },
                    {
                        "location": {
                            "reference": "Location/ebMDkIoNMQln3iIzo3nwSkgNSuWNrpYgObEUVctbTF5s3",
                            "display": "EMH IR Imaging"
                        }
                    },
                    {
                        "location": {
                            "reference": "Location/eQSOrLdbVrMRc68KBcTBG4A3",
                            "display": "Epic Hospital System"
                        }
                    }
                ]
            },
            "search": {
                "mode": "match"
            }
        },
        {
            "link": [
                {
                    "relation": "self",
                    "url": "https://appmarket.epic.com/interconnect-amcurprd-oauth/api/FHIR/R4/Encounter/esRR7BmuKto4kNvIxh9tQAQ3"
                }
            ],
            "fullUrl": "https://appmarket.epic.com/interconnect-amcurprd-oauth/api/FHIR/R4/Encounter/esRR7BmuKto4kNvIxh9tQAQ3",
            "resource": {
                "resourceType": "Encounter",
                "id": "esRR7BmuKto4kNvIxh9tQAQ3",
                "identifier": [
                    {
                        "use": "usual",
                        "system": "urn:oid:1.2.840.114350.1.13.0.1.7.3.698084.8",
                        "value": "12025"
                    }
                ],
                "status": "unknown",
                "class": {
                    "system": "urn:oid:1.2.840.114350.1.72.1.7.7.10.696784.13260",
                    "code": "1",
                    "display": "Surgery Case"
                },
                "type": [
                    {
                        "coding": [
                            {
                                "system": "urn:oid:1.2.840.114350.1.13.0.1.7.10.698084.30",
                                "code": "51",
                                "display": "Surgery"
                            }
                        ],
                        "text": "Surgery"
                    }
                ],
                "subject": {
                    "reference": "Patient/e.13xKA1yn2NWujU2MqFPhw3",
                    "display": "Radiant, Angie"
                },
                "period": {
                    "start": "2013-11-08",
                    "end": "2013-11-08"
                },
                "location": [
                    {
                        "location": {
                            "reference": "Location/eemP7-W6pa9-anwU4tQgwn7NKhpCjP.oipNazAs46zsA3",
                            "display": "EMH Interventional Radiology Imaging"
                        }
                    }
                ],
                "partOf": {
                    "reference": "Encounter/ezfXheJG65JcsqxCEBdGLMQ3",
                    "identifier": {
                        "use": "usual",
                        "system": "urn:oid:1.2.840.114350.1.13.0.1.7.3.698084.8",
                        "value": "12024"
                    },
                    "display": "Hospital Encounter"
                }
            },
            "search": {
                "mode": "match"
            }
        },
        {
            "link": [
                {
                    "relation": "self",
                    "url": "https://appmarket.epic.com/interconnect-amcurprd-oauth/api/FHIR/R4/Encounter/edI9gN1m7gx0LQHLr4XYjhw3"
                }
            ],
            "fullUrl": "https://appmarket.epic.com/interconnect-amcurprd-oauth/api/FHIR/R4/Encounter/edI9gN1m7gx0LQHLr4XYjhw3",
            "resource": {
                "resourceType": "Encounter",
                "id": "edI9gN1m7gx0LQHLr4XYjhw3",
                "identifier": [
                    {
                        "use": "usual",
                        "system": "urn:oid:1.2.840.114350.1.13.0.1.7.3.698084.8",
                        "value": "12026"
                    }
                ],
                "status": "in-progress",
                "class": {
                    "system": "urn:oid:1.2.840.114350.1.72.1.7.7.10.696784.13260",
                    "code": "13",
                    "display": "Support OP Encounter"
                },
                "type": [
                    {
                        "coding": [
                            {
                                "system": "urn:oid:1.2.840.114350.1.13.0.1.7.10.698084.30",
                                "code": "117",
                                "display": "Ancillary Orders"
                            }
                        ],
                        "text": "Ancillary Orders"
                    }
                ],
                "subject": {
                    "reference": "Patient/e.13xKA1yn2NWujU2MqFPhw3",
                    "display": "Radiant, Angie"
                },
                "period": {
                    "start": "2012-04-19",
                    "end": "2012-04-19"
                },
                "location": [
                    {
                        "location": {
                            "reference": "Location/e4W4rmGe9QzuGm2Dy4NBqVc0KDe6yGld6HW95UuN-Qd03",
                            "display": "EMC Family Medicine"
                        }
                    }
                ]
            },
            "search": {
                "mode": "match"
            }
        },
        {
            "link": [
                {
                    "relation": "self",
                    "url": "https://appmarket.epic.com/interconnect-amcurprd-oauth/api/FHIR/R4/Encounter/e2mFhCCw5mTggZ-fJ.GX-pg3"
                }
            ],
            "fullUrl": "https://appmarket.epic.com/interconnect-amcurprd-oauth/api/FHIR/R4/Encounter/e2mFhCCw5mTggZ-fJ.GX-pg3",
            "resource": {
                "resourceType": "Encounter",
                "id": "e2mFhCCw5mTggZ-fJ.GX-pg3",
                "identifier": [
                    {
                        "use": "usual",
                        "system": "urn:oid:1.2.840.114350.1.13.0.1.7.3.698084.8",
                        "value": "12027"
                    }
                ],
                "status": "unknown",
                "class": {
                    "system": "urn:oid:1.2.840.114350.1.72.1.7.7.10.696784.13260",
                    "code": "13",
                    "display": "Support OP Encounter"
                },
                "subject": {
                    "reference": "Patient/e.13xKA1yn2NWujU2MqFPhw3",
                    "display": "Radiant, Angie"
                },
                "period": {
                    "start": "2011-12-10",
                    "end": "2011-12-10"
                }
            },
            "search": {
                "mode": "match"
            }
        },
        {
            "link": [
                {
                    "relation": "self",
                    "url": "https://appmarket.epic.com/interconnect-amcurprd-oauth/api/FHIR/R4/Encounter/eT2VY7F1aMmMsZbnq4wPeDw3"
                }
            ],
            "fullUrl": "https://appmarket.epic.com/interconnect-amcurprd-oauth/api/FHIR/R4/Encounter/eT2VY7F1aMmMsZbnq4wPeDw3",
            "resource": {
                "resourceType": "Encounter",
                "id": "eT2VY7F1aMmMsZbnq4wPeDw3",
                "identifier": [
                    {
                        "use": "usual",
                        "system": "urn:oid:1.2.840.114350.1.13.0.1.7.3.698084.8",
                        "value": "12028"
                    }
                ],
                "status": "unknown",
                "class": {
                    "system": "urn:oid:1.2.840.114350.1.72.1.7.7.10.696784.13260",
                    "code": "13",
                    "display": "Support OP Encounter"
                },
                "subject": {
                    "reference": "Patient/e.13xKA1yn2NWujU2MqFPhw3",
                    "display": "Radiant, Angie"
                },
                "period": {
                    "start": "2011-04-22",
                    "end": "2011-04-22"
                }
            },
            "search": {
                "mode": "match"
            }
        },
        {
            "link": [
                {
                    "relation": "self",
                    "url": "https://appmarket.epic.com/interconnect-amcurprd-oauth/api/FHIR/R4/Encounter/eYjVpz3nzFtz40elkIZmUQA3"
                }
            ],
            "fullUrl": "https://appmarket.epic.com/interconnect-amcurprd-oauth/api/FHIR/R4/Encounter/eYjVpz3nzFtz40elkIZmUQA3",
            "resource": {
                "resourceType": "Encounter",
                "id": "eYjVpz3nzFtz40elkIZmUQA3",
                "identifier": [
                    {
                        "use": "usual",
                        "system": "urn:oid:1.2.840.114350.1.13.0.1.7.3.698084.8",
                        "value": "12029"
                    }
                ],
                "status": "finished",
                "class": {
                    "system": "urn:oid:1.2.840.114350.1.72.1.7.7.10.696784.13260",
                    "code": "13",
                    "display": "Support OP Encounter"
                },
                "type": [
                    {
                        "coding": [
                            {
                                "system": "urn:oid:1.2.840.114350.1.13.0.1.7.10.698084.30",
                                "code": "101",
                                "display": "Office Visit"
                            }
                        ],
                        "text": "Office Visit"
                    }
                ],
                "subject": {
                    "reference": "Patient/e.13xKA1yn2NWujU2MqFPhw3",
                    "display": "Radiant, Angie"
                },
                "participant": [
                    {
                        "type": [
                            {
                                "text": "losAuthorizingPhysician"
                            }
                        ],
                        "individual": {
                            "reference": "Practitioner/eM5CWtq15N0WJeuCet5bJlQ3",
                            "type": "Practitioner",
                            "display": "Physician Family Medicine, MD"
                        }
                    }
                ],
                "period": {
                    "start": "2011-03-21",
                    "end": "2011-03-21"
                },
                "reasonCode": [
                    {
                        "coding": [
                            {
                                "system": "urn:oid:1.2.840.114350.1.13.0.1.7.2.728286",
                                "code": "47",
                                "display": "Fever"
                            }
                        ],
                        "text": "Fever"
                    }
                ],
                "location": [
                    {
                        "location": {
                            "reference": "Location/e4W4rmGe9QzuGm2Dy4NBqVc0KDe6yGld6HW95UuN-Qd03",
                            "display": "EMC Family Medicine"
                        }
                    }
                ]
            },
            "search": {
                "mode": "match"
            }
        },
        {
            "link": [
                {
                    "relation": "self",
                    "url": "https://appmarket.epic.com/interconnect-amcurprd-oauth/api/FHIR/R4/Encounter/ezX-XbjYxKjKntUd8.LdEVw3"
                }
            ],
            "fullUrl": "https://appmarket.epic.com/interconnect-amcurprd-oauth/api/FHIR/R4/Encounter/ezX-XbjYxKjKntUd8.LdEVw3",
            "resource": {
                "resourceType": "Encounter",
                "id": "ezX-XbjYxKjKntUd8.LdEVw3",
                "identifier": [
                    {
                        "use": "usual",
                        "system": "urn:oid:1.2.840.114350.1.13.0.1.7.3.698084.8",
                        "value": "12030"
                    }
                ],
                "status": "unknown",
                "class": {
                    "system": "urn:oid:1.2.840.114350.1.72.1.7.7.10.696784.13260",
                    "code": "13",
                    "display": "Support OP Encounter"
                },
                "type": [
                    {
                        "coding": [
                            {
                                "system": "urn:oid:1.2.840.114350.1.13.0.1.7.10.698084.30",
                                "code": "115",
                                "display": "Resolute Professional Billing Hospital Prof Fee"
                            }
                        ],
                        "text": "Resolute Professional Billing Hospital Prof Fee"
                    }
                ],
                "subject": {
                    "reference": "Patient/e.13xKA1yn2NWujU2MqFPhw3",
                    "display": "Radiant, Angie"
                },
                "participant": [
                    {
                        "type": [
                            {
                                "coding": [
                                    {
                                        "system": "http://hl7.org/fhir/v3/ParticipationType",
                                        "code": "ADM",
                                        "display": "admitter"
                                    }
                                ],
                                "text": "admitter"
                            }
                        ],
                        "individual": {
                            "reference": "Practitioner/e9s-IdXQOUVywHOVoisd6xQ3",
                            "type": "Practitioner",
                            "display": "Attending Physician Inpatient, MD"
                        }
                    }
                ],
                "period": {
                    "start": "2010-12-12T06:00:00Z"
                },
                "location": [
                    {
                        "location": {
                            "reference": "Location/etk-blkZr.2.mHyBW6isfhjiMf0FMRauHE.XP765i1rY3",
                            "display": "EMH Labor and Delivery"
                        }
                    },
                    {
                        "location": {
                            "reference": "Location/etk-blkZr.2.mHyBW6isfhjiMf0FMRauHE.XP765i1rY3",
                            "display": "EMH Labor and Delivery"
                        }
                    },
                    {
                        "location": {
                            "reference": "Location/eyW.tjVUgJQl5ze6B4kzrJg3",
                            "display": "L&D - 321"
                        },
                        "physicalType": {
                            "coding": [
                                {
                                    "system": "http://terminology.hl7.org/CodeSystem/location-physical-type",
                                    "code": "ro",
                                    "display": "Room"
                                }
                            ],
                            "text": "Room"
                        }
                    }
                ]
            },
            "search": {
                "mode": "match"
            }
        },
        {
            "link": [
                {
                    "relation": "self",
                    "url": "https://appmarket.epic.com/interconnect-amcurprd-oauth/api/FHIR/R4/Encounter/e9l-vaghp4MwjXV0FbQAZuQ3"
                }
            ],
            "fullUrl": "https://appmarket.epic.com/interconnect-amcurprd-oauth/api/FHIR/R4/Encounter/e9l-vaghp4MwjXV0FbQAZuQ3",
            "resource": {
                "resourceType": "Encounter",
                "id": "e9l-vaghp4MwjXV0FbQAZuQ3",
                "identifier": [
                    {
                        "use": "usual",
                        "system": "urn:oid:1.2.840.114350.1.13.0.1.7.3.698084.8",
                        "value": "12031"
                    }
                ],
                "status": "finished",
                "class": {
                    "system": "urn:oid:1.2.840.114350.1.72.1.7.7.10.696784.13260",
                    "code": "6",
                    "display": "Discharge"
                },
                "type": [
                    {
                        "coding": [
                            {
                                "system": "urn:oid:1.2.840.114350.1.13.0.1.7.10.698084.10110",
                                "code": "107",
                                "display": "Newborn"
                            }
                        ],
                        "text": "Newborn"
                    },
                    {
                        "coding": [
                            {
                                "system": "urn:oid:1.2.840.114350.1.13.0.1.7.10.698084.30",
                                "code": "3",
                                "display": "Hospital Encounter"
                            }
                        ],
                        "text": "Hospital Encounter"
                    },
                    {
                        "coding": [
                            {
                                "system": "urn:oid:1.2.840.114350.1.13.0.1.7.10.698084.18875",
                                "code": "4",
                                "display": "Newborn"
                            }
                        ],
                        "text": "Newborn"
                    }
                ],
                "serviceType": {
                    "coding": [
                        {
                            "system": "urn:oid:1.2.840.114350.1.13.0.1.7.10.698084.18886",
                            "code": "17"
                        }
                    ]
                },
                "subject": {
                    "reference": "Patient/e.13xKA1yn2NWujU2MqFPhw3",
                    "display": "Radiant, Angie"
                },
                "participant": [
                    {
                        "type": [
                            {
                                "coding": [
                                    {
                                        "system": "http://hl7.org/fhir/v3/ParticipationType",
                                        "code": "ADM",
                                        "display": "admitter"
                                    }
                                ],
                                "text": "admitter"
                            }
                        ],
                        "individual": {
                            "reference": "Practitioner/e9s-IdXQOUVywHOVoisd6xQ3",
                            "type": "Practitioner",
                            "display": "Attending Physician Inpatient, MD"
                        }
                    },
                    {
                        "type": [
                            {
                                "coding": [
                                    {
                                        "system": "http://hl7.org/fhir/v3/ParticipationType",
                                        "code": "DIS",
                                        "display": "discharger"
                                    }
                                ],
                                "text": "discharger"
                            }
                        ],
                        "individual": {
                            "reference": "Practitioner/e9s-IdXQOUVywHOVoisd6xQ3",
                            "type": "Practitioner",
                            "display": "Attending Physician Inpatient, MD"
                        }
                    },
                    {
                        "type": [
                            {
                                "coding": [
                                    {
                                        "system": "http://hl7.org/fhir/v3/ParticipationType",
                                        "code": "ATND",
                                        "display": "attender"
                                    }
                                ],
                                "text": "attender"
                            }
                        ],
                        "period": {
                            "start": "2010-12-12T20:01:00Z",
                            "end": "2010-12-12T20:10:00Z"
                        },
                        "individual": {
                            "reference": "Practitioner/e9s-IdXQOUVywHOVoisd6xQ3",
                            "type": "Practitioner",
                            "display": "Attending Physician Inpatient, MD"
                        }
                    }
                ],
                "period": {
                    "start": "2010-12-12T20:01:00Z",
                    "end": "2010-12-12T20:10:00Z"
                },
                "account": [
                    {
                        "identifier": {
                            "system": "urn:oid:1.2.840.114350.1.13.0.1.7.2.726582",
                            "value": "763"
                        },
                        "display": "RADIANT,ANGIE"
                    }
                ],
                "hospitalization": {
                    "extension": [
                        {
                            "valueDateTime": "2010-12-12T20:01:00Z",
                            "url": "http://open.epic.com/FHIR/StructureDefinition/extension/ip-admit-datetime"
                        }
                    ],
                    "admitSource": {
                        "coding": [
                            {
                                "system": "urn:oid:1.2.840.114350.1.13.0.1.7.10.698084.10310",
                                "code": "12"
                            }
                        ]
                    },
                    "dischargeDisposition": {
                        "coding": [
                            {
                                "system": "urn:oid:1.2.840.114350.1.13.0.1.7.10.698084.18888",
                                "code": "1",
                                "display": "Home or Self Care"
                            }
                        ],
                        "text": "Home or Self Care"
                    }
                },
                "location": [
                    {
                        "location": {
                            "reference": "Location/etk-blkZr.2.mHyBW6isfhjiMf0FMRauHE.XP765i1rY3",
                            "display": "EMH Labor and Delivery"
                        },
                        "period": {
                            "start": "2010-12-12T20:01:00Z",
                            "end": "2010-12-12T20:10:00Z"
                        }
                    },
                    {
                        "location": {
                            "reference": "Location/etk-blkZr.2.mHyBW6isfhjiMf0FMRauHE.XP765i1rY3",
                            "display": "EMH Labor and Delivery"
                        }
                    },
                    {
                        "location": {
                            "reference": "Location/eQSOrLdbVrMRc68KBcTBG4A3",
                            "display": "Epic Hospital System"
                        }
                    },
                    {
                        "location": {
                            "reference": "Location/eyW.tjVUgJQl5ze6B4kzrJg3",
                            "display": "L&D - 321"
                        },
                        "physicalType": {
                            "coding": [
                                {
                                    "system": "http://terminology.hl7.org/CodeSystem/location-physical-type",
                                    "code": "ro",
                                    "display": "Room"
                                }
                            ],
                            "text": "Room"
                        }
                    },
                    {
                        "location": {
                            "identifier": {
                                "system": "urn:oid:1.2.840.114350.1.13.0.1.7.2.666968",
                                "value": "309"
                            },
                            "display": "321-01"
                        },
                        "physicalType": {
                            "coding": [
                                {
                                    "system": "http://terminology.hl7.org/CodeSystem/location-physical-type",
                                    "code": "bd",
                                    "display": "Bed"
                                }
                            ],
                            "text": "Bed"
                        }
                    }
                ]
            },
            "search": {
                "mode": "match"
            }
        },
        {
            "link": [
                {
                    "relation": "self",
                    "url": "https://appmarket.epic.com/interconnect-amcurprd-oauth/api/FHIR/R4/Encounter/eQ76yOqyeUcu4dQcF9ZAhcQ3"
                }
            ],
            "fullUrl": "https://appmarket.epic.com/interconnect-amcurprd-oauth/api/FHIR/R4/Encounter/eQ76yOqyeUcu4dQcF9ZAhcQ3",
            "resource": {
                "resourceType": "Encounter",
                "id": "eQ76yOqyeUcu4dQcF9ZAhcQ3",
                "identifier": [
                    {
                        "use": "usual",
                        "system": "urn:oid:1.2.840.114350.1.13.0.1.7.3.698084.8",
                        "value": "12033"
                    }
                ],
                "status": "unknown",
                "class": {
                    "system": "urn:oid:1.2.840.114350.1.72.1.7.7.10.696784.13260",
                    "code": "13",
                    "display": "Support OP Encounter"
                },
                "subject": {
                    "reference": "Patient/e.13xKA1yn2NWujU2MqFPhw3",
                    "display": "Radiant, Angie"
                },
                "period": {
                    "start": "2010-11-10",
                    "end": "2010-11-10"
                }
            },
            "search": {
                "mode": "match"
            }
        },
        {
            "link": [
                {
                    "relation": "self",
                    "url": "https://appmarket.epic.com/interconnect-amcurprd-oauth/api/FHIR/R4/Encounter/eD0wO-EWHeKlb5uFKGrAYRw3"
                }
            ],
            "fullUrl": "https://appmarket.epic.com/interconnect-amcurprd-oauth/api/FHIR/R4/Encounter/eD0wO-EWHeKlb5uFKGrAYRw3",
            "resource": {
                "resourceType": "Encounter",
                "id": "eD0wO-EWHeKlb5uFKGrAYRw3",
                "identifier": [
                    {
                        "use": "usual",
                        "system": "urn:oid:1.2.840.114350.1.13.0.1.7.3.698084.8",
                        "value": "12034"
                    }
                ],
                "status": "unknown",
                "class": {
                    "system": "urn:oid:1.2.840.114350.1.72.1.7.7.10.696784.13260",
                    "code": "13",
                    "display": "Support OP Encounter"
                },
                "subject": {
                    "reference": "Patient/e.13xKA1yn2NWujU2MqFPhw3",
                    "display": "Radiant, Angie"
                },
                "period": {
                    "start": "2010-08-03",
                    "end": "2010-08-03"
                }
            },
            "search": {
                "mode": "match"
            }
        },
        {
            "link": [
                {
                    "relation": "self",
                    "url": "https://appmarket.epic.com/interconnect-amcurprd-oauth/api/FHIR/R4/Encounter/eLMxYnn6JinVePaZD.ux81A3"
                }
            ],
            "fullUrl": "https://appmarket.epic.com/interconnect-amcurprd-oauth/api/FHIR/R4/Encounter/eLMxYnn6JinVePaZD.ux81A3",
            "resource": {
                "resourceType": "Encounter",
                "id": "eLMxYnn6JinVePaZD.ux81A3",
                "identifier": [
                    {
                        "use": "usual",
                        "system": "urn:oid:1.2.840.114350.1.13.0.1.7.3.698084.8",
                        "value": "12035"
                    }
                ],
                "status": "unknown",
                "class": {
                    "system": "urn:oid:1.2.840.114350.1.72.1.7.7.10.696784.13260",
                    "code": "13",
                    "display": "Support OP Encounter"
                },
                "subject": {
                    "reference": "Patient/e.13xKA1yn2NWujU2MqFPhw3",
                    "display": "Radiant, Angie"
                },
                "period": {
                    "start": "2010-08-03",
                    "end": "2010-08-03"
                }
            },
            "search": {
                "mode": "match"
            }
        },
        {
            "link": [
                {
                    "relation": "self",
                    "url": "https://appmarket.epic.com/interconnect-amcurprd-oauth/api/FHIR/R4/Encounter/eqCHRnQbjX4OhOdeGS3v9zg3"
                }
            ],
            "fullUrl": "https://appmarket.epic.com/interconnect-amcurprd-oauth/api/FHIR/R4/Encounter/eqCHRnQbjX4OhOdeGS3v9zg3",
            "resource": {
                "resourceType": "Encounter",
                "id": "eqCHRnQbjX4OhOdeGS3v9zg3",
                "identifier": [
                    {
                        "use": "usual",
                        "system": "urn:oid:1.2.840.114350.1.13.0.1.7.3.698084.8",
                        "value": "12036"
                    }
                ],
                "status": "unknown",
                "class": {
                    "system": "urn:oid:1.2.840.114350.1.72.1.7.7.10.696784.13260",
                    "code": "13",
                    "display": "Support OP Encounter"
                },
                "subject": {
                    "reference": "Patient/e.13xKA1yn2NWujU2MqFPhw3",
                    "display": "Radiant, Angie"
                },
                "period": {
                    "start": "2010-08-03",
                    "end": "2010-08-03"
                }
            },
            "search": {
                "mode": "match"
            }
        },
        {
            "link": [
                {
                    "relation": "self",
                    "url": "https://appmarket.epic.com/interconnect-amcurprd-oauth/api/FHIR/R4/Encounter/eY4uGiKwxk25XinYcqhtLAA3"
                }
            ],
            "fullUrl": "https://appmarket.epic.com/interconnect-amcurprd-oauth/api/FHIR/R4/Encounter/eY4uGiKwxk25XinYcqhtLAA3",
            "resource": {
                "resourceType": "Encounter",
                "id": "eY4uGiKwxk25XinYcqhtLAA3",
                "identifier": [
                    {
                        "use": "usual",
                        "system": "urn:oid:1.2.840.114350.1.13.0.1.7.3.698084.8",
                        "value": "12037"
                    }
                ],
                "status": "unknown",
                "class": {
                    "system": "urn:oid:1.2.840.114350.1.72.1.7.7.10.696784.13260",
                    "code": "13",
                    "display": "Support OP Encounter"
                },
                "subject": {
                    "reference": "Patient/e.13xKA1yn2NWujU2MqFPhw3",
                    "display": "Radiant, Angie"
                },
                "period": {
                    "start": "2010-03-23",
                    "end": "2010-03-23"
                }
            },
            "search": {
                "mode": "match"
            }
        },
        {
            "link": [
                {
                    "relation": "self",
                    "url": "https://appmarket.epic.com/interconnect-amcurprd-oauth/api/FHIR/R4/Encounter/eGd75GLh3ZiJHVl4lze6kzw3"
                }
            ],
            "fullUrl": "https://appmarket.epic.com/interconnect-amcurprd-oauth/api/FHIR/R4/Encounter/eGd75GLh3ZiJHVl4lze6kzw3",
            "resource": {
                "resourceType": "Encounter",
                "id": "eGd75GLh3ZiJHVl4lze6kzw3",
                "identifier": [
                    {
                        "use": "usual",
                        "system": "urn:oid:1.2.840.114350.1.13.0.1.7.3.698084.8",
                        "value": "12038"
                    }
                ],
                "status": "unknown",
                "class": {
                    "system": "urn:oid:1.2.840.114350.1.72.1.7.7.10.696784.13260",
                    "code": "13",
                    "display": "Support OP Encounter"
                },
                "subject": {
                    "reference": "Patient/e.13xKA1yn2NWujU2MqFPhw3",
                    "display": "Radiant, Angie"
                },
                "period": {
                    "start": "2009-12-14",
                    "end": "2009-12-14"
                }
            },
            "search": {
                "mode": "match"
            }
        },
        {
            "link": [
                {
                    "relation": "self",
                    "url": "https://appmarket.epic.com/interconnect-amcurprd-oauth/api/FHIR/R4/Encounter/exudoxlClBdJ1OdsvFCofKw3"
                }
            ],
            "fullUrl": "https://appmarket.epic.com/interconnect-amcurprd-oauth/api/FHIR/R4/Encounter/exudoxlClBdJ1OdsvFCofKw3",
            "resource": {
                "resourceType": "Encounter",
                "id": "exudoxlClBdJ1OdsvFCofKw3",
                "identifier": [
                    {
                        "use": "usual",
                        "system": "urn:oid:1.2.840.114350.1.13.0.1.7.3.698084.8",
                        "value": "12039"
                    }
                ],
                "status": "unknown",
                "class": {
                    "system": "urn:oid:1.2.840.114350.1.72.1.7.7.10.696784.13260",
                    "code": "13",
                    "display": "Support OP Encounter"
                },
                "subject": {
                    "reference": "Patient/e.13xKA1yn2NWujU2MqFPhw3",
                    "display": "Radiant, Angie"
                },
                "period": {
                    "start": "2009-12-14",
                    "end": "2009-12-14"
                }
            },
            "search": {
                "mode": "match"
            }
        },
        {
            "link": [
                {
                    "relation": "self",
                    "url": "https://appmarket.epic.com/interconnect-amcurprd-oauth/api/FHIR/R4/Encounter/eqb6IhCx72VzoyAq4-.kPog3"
                }
            ],
            "fullUrl": "https://appmarket.epic.com/interconnect-amcurprd-oauth/api/FHIR/R4/Encounter/eqb6IhCx72VzoyAq4-.kPog3",
            "resource": {
                "resourceType": "Encounter",
                "id": "eqb6IhCx72VzoyAq4-.kPog3",
                "identifier": [
                    {
                        "use": "usual",
                        "system": "urn:oid:1.2.840.114350.1.13.0.1.7.3.698084.8",
                        "value": "12040"
                    }
                ],
                "status": "unknown",
                "class": {
                    "system": "urn:oid:1.2.840.114350.1.72.1.7.7.10.696784.13260",
                    "code": "13",
                    "display": "Support OP Encounter"
                },
                "subject": {
                    "reference": "Patient/e.13xKA1yn2NWujU2MqFPhw3",
                    "display": "Radiant, Angie"
                },
                "period": {
                    "start": "2009-12-14",
                    "end": "2009-12-14"
                }
            },
            "search": {
                "mode": "match"
            }
        },
        {
            "link": [
                {
                    "relation": "self",
                    "url": "https://appmarket.epic.com/interconnect-amcurprd-oauth/api/FHIR/R4/Patient/e.13xKA1yn2NWujU2MqFPhw3"
                }
            ],
            "fullUrl": "https://appmarket.epic.com/interconnect-amcurprd-oauth/api/FHIR/R4/Patient/e.13xKA1yn2NWujU2MqFPhw3",
            "resource": {
                "resourceType": "Patient",
                "id": "e.13xKA1yn2NWujU2MqFPhw3",
                "extension": [
                    {
                        "extension": [
                            {
                                "valueCoding": {
                                    "system": "http://terminology.hl7.org/CodeSystem/v3-NullFlavor",
                                    "code": "UNK",
                                    "display": "Unknown"
                                },
                                "url": "ombCategory"
                            },
                            {
                                "valueString": "Unknown",
                                "url": "text"
                            }
                        ],
                        "url": "http://hl7.org/fhir/us/core/StructureDefinition/us-core-race"
                    },
                    {
                        "extension": [
                            {
                                "valueString": "Unknown",
                                "url": "text"
                            }
                        ],
                        "url": "http://hl7.org/fhir/us/core/StructureDefinition/us-core-ethnicity"
                    },
                    {
                        "valueCodeableConcept": {
                            "coding": [
                                {
                                    "system": "urn:oid:1.2.840.114350.1.13.0.1.7.10.698084.130.657370.19999000",
                                    "code": "female",
                                    "display": "female"
                                }
                            ]
                        },
                        "url": "http://open.epic.com/FHIR/StructureDefinition/extension/legal-sex"
                    },
                    {
                        "valueCodeableConcept": {
                            "coding": [
                                {
                                    "system": "urn:oid:1.2.840.114350.1.13.0.1.7.10.698084.130.657370.19999000",
                                    "code": "female",
                                    "display": "female"
                                }
                            ]
                        },
                        "url": "http://open.epic.com/FHIR/StructureDefinition/extension/sex-for-clinical-use"
                    },
                    {
                        "valueCode": "F",
                        "url": "http://hl7.org/fhir/us/core/StructureDefinition/us-core-birthsex"
                    }
                ],
                "identifier": [
                    {
                        "use": "usual",
                        "system": "urn:oid:2.16.840.1.113883.4.1",
                        "value": "810-48-5243"
                    },
                    {
                        "use": "usual",
                        "type": {
                            "text": "CEID"
                        },
                        "system": "urn:epic:apporchard.curprod",
                        "value": "AO1KDNT0S5S23LX"
                    },
                    {
                        "use": "usual",
                        "type": {
                            "text": "EPIC"
                        },
                        "system": "urn:oid:1.2.840.114350.1.1",
                        "value": "E2746"
                    },
                    {
                        "use": "usual",
                        "type": {
                            "text": "EXTERNAL"
                        },
                        "system": "urn:oid:1.2.840.114350.1.13.0.1.7.2.698084",
                        "value": "Z5123"
                    },
                    {
                        "use": "usual",
                        "type": {
                            "text": "FHIR"
                        },
                        "system": "http://open.epic.com/FHIR/StructureDefinition/patient-dstu2-fhir-id",
                        "value": "TzRDDAxngwe3tKyriQODRAwTsZ3cj6CCW1LcnHJk6iV8B"
                    },
                    {
                        "use": "usual",
                        "type": {
                            "text": "FHIR STU3"
                        },
                        "system": "http://open.epic.com/FHIR/StructureDefinition/patient-fhir-id",
                        "value": "e.13xKA1yn2NWujU2MqFPhw3"
                    },
                    {
                        "use": "usual",
                        "type": {
                            "text": "INTERNAL"
                        },
                        "system": "urn:oid:1.2.840.114350.1.13.0.1.7.2.698084",
                        "value": "     Z5123"
                    },
                    {
                        "use": "usual",
                        "type": {
                            "text": "MRN"
                        },
                        "system": "urn:oid:1.2.840.114350.1.13.0.1.7.5.737384.14",
                        "value": "202512"
                    },
                    {
                        "use": "usual",
                        "type": {
                            "text": "MYCHARTLOGIN"
                        },
                        "system": "urn:oid:1.2.840.114350.1.13.0.1.7.3.878082.110",
                        "value": "RADANGIE"
                    },
                    {
                        "use": "usual",
                        "type": {
                            "text": "WPRINTERNAL"
                        },
                        "system": "urn:oid:1.2.840.114350.1.13.0.1.7.2.878082",
                        "value": "553"
                    }
                ],
                "active": true,
                "name": [
                    {
                        "use": "official",
                        "text": "Angie Radiant",
                        "family": "Radiant",
                        "given": [
                            "Angie"
                        ]
                    },
                    {
                        "use": "usual",
                        "text": "Angie Radiant",
                        "family": "Radiant",
                        "given": [
                            "Angie"
                        ]
                    }
                ],
                "telecom": [
                    {
                        "system": "phone",
                        "value": "608-251-7777",
                        "use": "home"
                    }
                ],
                "gender": "female",
                "birthDate": "1999-09-22",
                "deceasedBoolean": false,
                "address": [
                    {
                        "use": "old",
                        "line": [
                            "1619 South University"
                        ],
                        "city": "Madison",
                        "state": "WI",
                        "postalCode": "53703",
                        "country": "US"
                    },
                    {
                        "use": "home",
                        "line": [
                            "1619 South University"
                        ],
                        "city": "Madison",
                        "state": "WI",
                        "postalCode": "53703",
                        "country": "US"
                    }
                ],
                "maritalStatus": {
                    "text": "Single"
                },
                "contact": [
                    {
                        "relationship": [
                            {
                                "coding": [
                                    {
                                        "system": "http://terminology.hl7.org/CodeSystem/v2-0131",
                                        "code": "C",
                                        "display": "Emergency Contact"
                                    },
                                    {
                                        "system": "http://terminology.hl7.org/CodeSystem/v2-0131",
                                        "code": "N",
                                        "display": "Next-of-Kin"
                                    },
                                    {
                                        "system": "urn:oid:1.2.840.114350.1.13.0.1.7.4.827665.1000",
                                        "code": "8",
                                        "display": "Mother"
                                    }
                                ],
                                "text": "Mother"
                            }
                        ],
                        "name": {
                            "use": "usual",
                            "text": "Amber Torino"
                        },
                        "telecom": [
                            {
                                "system": "phone",
                                "value": "608-251-7777",
                                "use": "home"
                            }
                        ],
                        "address": {
                            "use": "home",
                            "line": [
                                "1619 South University"
                            ],
                            "city": "Madison",
                            "state": "WI",
                            "postalCode": "53703",
                            "country": "US"
                        }
                    }
                ],
                "managingOrganization": {
                    "reference": "Organization/enRyWnSP963FYDpoks4NHOA3",
                    "display": "Epic Hospital System"
                }
            },
            "search": {
                "mode": "include"
            }
        },
        {
            "link": [
                {
                    "relation": "self",
                    "url": "https://appmarket.epic.com/interconnect-amcurprd-oauth/api/FHIR/R4/Encounter/ezfXheJG65JcsqxCEBdGLMQ3"
                }
            ],
            "fullUrl": "https://appmarket.epic.com/interconnect-amcurprd-oauth/api/FHIR/R4/Encounter/ezfXheJG65JcsqxCEBdGLMQ3",
            "resource": {
                "resourceType": "Encounter",
                "id": "ezfXheJG65JcsqxCEBdGLMQ3",
                "identifier": [
                    {
                        "use": "usual",
                        "system": "urn:oid:1.2.840.114350.1.13.0.1.7.3.698084.8",
                        "value": "12024"
                    }
                ],
                "status": "cancelled",
                "class": {
                    "system": "urn:oid:1.2.840.114350.1.72.1.7.7.10.696784.13260",
                    "code": "3",
                    "display": "Admission"
                },
                "type": [
                    {
                        "coding": [
                            {
                                "system": "urn:oid:1.2.840.114350.1.13.0.1.7.10.698084.10110",
                                "code": "102",
                                "display": "Outpatient"
                            }
                        ],
                        "text": "Outpatient"
                    },
                    {
                        "coding": [
                            {
                                "system": "urn:oid:1.2.840.114350.1.13.0.1.7.10.698084.30",
                                "code": "3",
                                "display": "Hospital Encounter"
                            }
                        ],
                        "text": "Hospital Encounter"
                    }
                ],
                "subject": {
                    "reference": "Patient/e.13xKA1yn2NWujU2MqFPhw3",
                    "display": "Radiant, Angie"
                },
                "participant": [
                    {
                        "type": [
                            {
                                "coding": [
                                    {
                                        "system": "http://hl7.org/fhir/v3/ParticipationType",
                                        "code": "ADM",
                                        "display": "admitter"
                                    }
                                ],
                                "text": "admitter"
                            }
                        ],
                        "individual": {
                            "reference": "Practitioner/ekK9AsfvYqLnReaTbTwFKWg3",
                            "type": "Practitioner"
                        }
                    },
                    {
                        "type": [
                            {
                                "coding": [
                                    {
                                        "system": "http://hl7.org/fhir/v3/ParticipationType",
                                        "code": "ATND",
                                        "display": "attender"
                                    }
                                ],
                                "text": "attender"
                            }
                        ],
                        "individual": {
                            "reference": "Practitioner/ekK9AsfvYqLnReaTbTwFKWg3",
                            "type": "Practitioner"
                        }
                    }
                ],
                "period": {
                    "start": "2013-11-08",
                    "end": "2013-11-08"
                },
                "location": [
                    {
                        "location": {
                            "reference": "Location/ebMDkIoNMQln3iIzo3nwSkgNSuWNrpYgObEUVctbTF5s3",
                            "display": "EMH IR Imaging"
                        }
                    },
                    {
                        "location": {
                            "reference": "Location/ebMDkIoNMQln3iIzo3nwSkgNSuWNrpYgObEUVctbTF5s3",
                            "display": "EMH IR Imaging"
                        }
                    },
                    {
                        "location": {
                            "reference": "Location/eQSOrLdbVrMRc68KBcTBG4A3",
                            "display": "Epic Hospital System"
                        }
                    }
                ]
            },
            "search": {
                "mode": "include"
            }
        }
    ]
}