{
    "resourceType": "Bundle",
    "type": "searchset",
    "total": 8,
    "link": [
        {
            "relation": "self",
            "url": "https://appmarket.epic.com/interconnect-amcurprd-oauth/api/FHIR/R4/Encounter?_include=Encounter:condition&_include=Encounter:episodeOfCare&_include=Encounter:partOf&_include=Encounter:subject&_format=json&patient=ejhHKeCqcbOdgfs8WKHWAqQ3"
        }
    ],
    "entry": [
        {
            "link": [
                {
                    "relation": "self",
                    "url": "https://appmarket.epic.com/interconnect-amcurprd-oauth/api/FHIR/R4/Encounter/eOigJ6vSTakspaBNwy.gsmw3"
                }
            ],
            "fullUrl": "https://appmarket.epic.com/interconnect-amcurprd-oauth/api/FHIR/R4/Encounter/eOigJ6vSTakspaBNwy.gsmw3",
            "resource": {
                "resourceType": "Encounter",
                "id": "eOigJ6vSTakspaBNwy.gsmw3",
                "identifier": [
                    {
                        "use": "usual",
                        "system": "urn:oid:1.2.840.114350.1.13.0.1.7.3.698084.8",
                        "value": "6284"
                    }
                ],
                "status": "unknown",
                "class": {
                    "system": "urn:oid:1.2.840.114350.1.72.1.7.7.10.696784.13260",
                    "code": "10",
                    "display": "Surgery Log"
                },
                "type": [
                    {
                        "coding": [
                            {
                                "system": "urn:oid:1.2.840.114350.1.13.0.1.7.10.698084.30",
                                "code": "51",
                                "display": "Surgery"
                            }
                        ],
                        "text": "Surgery"
                    }
                ],
                "subject": {
                    "reference": "Patient/ejhHKeCqcbOdgfs8WKHWAqQ3",
                    "display": "Integration, Mom"
                },
                "period": {
                    "start": "2012-12-07T18:55:00Z",
                    "end": "2012-12-07T20:10:00Z"
                },
                "location": [
                    {
                        "location": {
                            "reference": "Location/ejUYQRPGtz3vxe3M8nYCttnPcG64r9.6UJkiszxIi9zo3",
                            "display": "EMH Labor and Delivery"
                        }
                    }
                ],
                "partOf": {
                    "reference": "Encounter/er91dV5GfzqKC4B61EEMp7w3",
                    "identifier": {
                        "use": "usual",
                        "system": "urn:oid:1.2.840.114350.1.13.0.1.7.3.698084.8",
                        "value": "6286"
                    },
                    "display": "Hospital Encounter"
                }
            },
            "search": {
                "mode": "match"
            }
        },
        {
            "link": [
                {
                    "relation": "self",
                    "url": "https://appmarket.epic.com/interconnect-amcurprd-oauth/api/FHIR/R4/Encounter/er91dV5GfzqKC4B61EEMp7w3"
                }
            ],
            "fullUrl": "https://appmarket.epic.com/interconnect-amcurprd-oauth/api/FHIR/R4/Encounter/er91dV5GfzqKC4B61EEMp7w3",
            "resource": {
                "resourceType": "Encounter",
                "id": "er91dV5GfzqKC4B61EEMp7w3",
                "extension": [
                    {
                        "valueBoolean": false,
                        "url": "http://open.epic.com/FHIR/StructureDefinition/extension/accidentrelated"
                    }
                ],
                "identifier": [
                    {
                        "use": "usual",
                        "system": "urn:oid:1.2.840.114350.1.13.0.1.7.3.698084.8",
                        "value": "6286"
                    }
                ],
                "status": "in-progress",
                "class": {
                    "system": "urn:oid:1.2.840.114350.1.72.1.7.7.10.696784.13260",
                    "code": "3",
                    "display": "Admission"
                },
                "type": [
                    {
                        "coding": [
                            {
                                "system": "urn:oid:1.2.840.114350.1.13.0.1.7.10.698084.10110",
                                "code": "101",
                                "display": "Inpatient"
                            }
                        ],
                        "text": "Inpatient"
                    },
                    {
                        "coding": [
                            {
                                "system": "urn:oid:1.2.840.114350.1.13.0.1.7.10.698084.30",
                                "code": "3",
                                "display": "Hospital Encounter"
                            }
                        ],
                        "text": "Hospital Encounter"
                    },
                    {
                        "coding": [
                            {
                                "system": "urn:oid:1.2.840.114350.1.13.0.1.7.10.698084.18875",
                                "code": "3",
                                "display": "Elective"
                            }
                        ],
                        "text": "Elective"
                    }
                ],
                "serviceType": {
                    "coding": [
                        {
                            "system": "urn:oid:1.2.840.114350.1.13.0.1.7.10.698084.18886",
                            "code": "117",
                            "display": "Obstetrics"
                        }
                    ],
                    "text": "Obstetrics"
                },
                "subject": {
                    "reference": "Patient/ejhHKeCqcbOdgfs8WKHWAqQ3",
                    "display": "Integration, Mom"
                },
                "episodeOfCare": [
                    {
                        "reference": "EpisodeOfCare/ePry2C4GIHlKH6KpkEu11PA3",
                        "type": "EpisodeOfCare",
                        "display": "Pregnancy"
                    }
                ],
                "participant": [
                    {
                        "type": [
                            {
                                "coding": [
                                    {
                                        "system": "http://hl7.org/fhir/v3/ParticipationType",
                                        "code": "ADM",
                                        "display": "admitter"
                                    }
                                ],
                                "text": "admitter"
                            }
                        ],
                        "individual": {
                            "reference": "Practitioner/eHdBpsN5eOyFCM2cUPgGuTw3",
                            "type": "Practitioner",
                            "display": "Physician Obstetrics, MD"
                        }
                    },
                    {
                        "type": [
                            {
                                "coding": [
                                    {
                                        "system": "http://hl7.org/fhir/v3/ParticipationType",
                                        "code": "ATND",
                                        "display": "attender"
                                    }
                                ],
                                "text": "attender"
                            }
                        ],
                        "period": {
                            "start": "2012-12-07T14:26:00Z"
                        },
                        "individual": {
                            "reference": "Practitioner/eHdBpsN5eOyFCM2cUPgGuTw3",
                            "type": "Practitioner",
                            "display": "Physician Obstetrics, MD"
                        }
                    }
                ],
                "period": {
                    "start": "2012-12-07T14:27:17Z"
                },
                "account": [
                    {
                        "identifier": {
                            "system": "urn:oid:1.2.840.114350.1.13.0.1.7.2.726582",
                            "value": "581"
                        },
                        "display": "INTEGRATION,MOM"
                    }
                ],
                "hospitalization": {
                    "extension": [
                        {
                            "valueDateTime": "2012-12-07T14:27:17Z",
                            "url": "http://open.epic.com/FHIR/StructureDefinition/extension/ip-admit-datetime"
                        }
                    ],
                    "admitSource": {
                        "coding": [
                            {
                                "system": "urn:oid:1.2.840.114350.1.13.0.1.7.10.698084.10310",
                                "code": "12"
                            }
                        ]
                    }
                },
                "location": [
                    {
                        "location": {
                            "reference": "Location/etk-blkZr.2.mHyBW6isfhjiMf0FMRauHE.XP765i1rY3",
                            "display": "EMH Labor and Delivery"
                        },
                        "period": {
                            "start": "2012-12-07T14:27:00Z"
                        }
                    },
                    {
                        "location": {
                            "reference": "Location/etk-blkZr.2.mHyBW6isfhjiMf0FMRauHE.XP765i1rY3",
                            "display": "EMH Labor and Delivery"
                        }
                    },
                    {
                        "location": {
                            "reference": "Location/eQSOrLdbVrMRc68KBcTBG4A3",
                            "display": "Epic Hospital System"
                        }
                    },
                    {
                        "location": {
                            "reference": "Location/ePFX2o81EiL97tL7f-mm2cQ3",
                            "display": "Waiting Room"
                        },
                        "physicalType": {
                            "coding": [
                                {
                                    "system": "http://terminology.hl7.org/CodeSystem/location-physical-type",
                                    "code": "ro",
                                    "display": "Room"
                                }
                            ],
                            "text": "Room"
                        }
                    },
                    {
                        "location": {
                            "identifier": {
                                "system": "urn:oid:1.2.840.114350.1.13.0.1.7.2.666968",
                                "value": "463"
                            },
                            "display": "WAITING ROOM"
                        },
                        "physicalType": {
                            "coding": [
                                {
                                    "system": "http://terminology.hl7.org/CodeSystem/location-physical-type",
                                    "code": "bd",
                                    "display": "Bed"
                                }
                            ],
                            "text": "Bed"
                        }
                    }
                ]
            },
            "search": {
                "mode": "match"
            }
        },
        {
            "link": [
                {
                    "relation": "self",
                    "url": "https://appmarket.epic.com/interconnect-amcurprd-oauth/api/FHIR/R4/Encounter/e5TsML.dXK2O.U9vD0ebb7Q3"
                }
            ],
            "fullUrl": "https://appmarket.epic.com/interconnect-amcurprd-oauth/api/FHIR/R4/Encounter/e5TsML.dXK2O.U9vD0ebb7Q3",
            "resource": {
                "resourceType": "Encounter",
                "id": "e5TsML.dXK2O.U9vD0ebb7Q3",
                "extension": [
                    {
                        "valueBoolean": false,
                        "url": "http://open.epic.com/FHIR/StructureDefinition/extension/accidentrelated"
                    }
                ],
                "identifier": [
                    {
                        "use": "usual",
                        "system": "urn:oid:1.2.840.114350.1.13.0.1.7.3.698084.8",
                        "value": "6287"
                    }
                ],
                "status": "cancelled",
                "class": {
                    "system": "urn:oid:1.2.840.114350.1.72.1.7.7.10.696784.13260",
                    "code": "2",
                    "display": "Preadmission"
                },
                "type": [
                    {
                        "coding": [
                            {
                                "system": "urn:oid:1.2.840.114350.1.13.0.1.7.10.698084.10110",
                                "code": "101",
                                "display": "Inpatient"
                            }
                        ],
                        "text": "Inpatient"
                    },
                    {
                        "coding": [
                            {
                                "system": "urn:oid:1.2.840.114350.1.13.0.1.7.10.698084.30",
                                "code": "3",
                                "display": "Hospital Encounter"
                            }
                        ],
                        "text": "Hospital Encounter"
                    },
                    {
                        "coding": [
                            {
                                "system": "urn:oid:1.2.840.114350.1.13.0.1.7.10.698084.18875",
                                "code": "3",
                                "display": "Elective"
                            }
                        ],
                        "text": "Elective"
                    }
                ],
                "serviceType": {
                    "coding": [
                        {
                            "system": "urn:oid:1.2.840.114350.1.13.0.1.7.10.698084.18886",
                            "code": "117",
                            "display": "Obstetrics"
                        }
                    ],
                    "text": "Obstetrics"
                },
                "subject": {
                    "reference": "Patient/ejhHKeCqcbOdgfs8WKHWAqQ3",
                    "display": "Integration, Mom"
                },
                "participant": [
                    {
                        "type": [
                            {
                                "coding": [
                                    {
                                        "system": "http://hl7.org/fhir/v3/ParticipationType",
                                        "code": "ADM",
                                        "display": "admitter"
                                    }
                                ],
                                "text": "admitter"
                            }
                        ],
                        "individual": {
                            "reference": "Practitioner/eHdBpsN5eOyFCM2cUPgGuTw3",
                            "type": "Practitioner",
                            "display": "Physician Obstetrics, MD"
                        }
                    },
                    {
                        "type": [
                            {
                                "coding": [
                                    {
                                        "system": "http://hl7.org/fhir/v3/ParticipationType",
                                        "code": "ATND",
                                        "display": "attender"
                                    }
                                ],
                                "text": "attender"
                            }
                        ],
                        "individual": {
                            "reference": "Practitioner/eHdBpsN5eOyFCM2cUPgGuTw3",
                            "type": "Practitioner",
                            "display": "Physician Obstetrics, MD"
                        }
                    }
                ],
                "period": {
                    "start": "2012-12-07",
                    "end": "2012-12-07"
                },
                "hospitalization": {
                    "admitSource": {
                        "coding": [
                            {
                                "system": "urn:oid:1.2.840.114350.1.13.0.1.7.10.698084.10310",
                                "code": "2",
                                "display": "Physician or Clinic Office"
                            }
                        ],
                        "text": "Physician or Clinic Office"
                    }
                },
                "location": [
                    {
                        "location": {
                            "reference": "Location/eNW.NKcCpaBwO0MZHtkPJGYt1cDnTFFGojcXcp3ziwgY3",
                            "display": "EMH Labor & Delivery Procedure"
                        }
                    },
                    {
                        "location": {
                            "reference": "Location/eNW.NKcCpaBwO0MZHtkPJGYt1cDnTFFGojcXcp3ziwgY3",
                            "display": "EMH Labor & Delivery Procedure"
                        }
                    },
                    {
                        "location": {
                            "reference": "Location/eQSOrLdbVrMRc68KBcTBG4A3",
                            "display": "Epic Hospital System"
                        }
                    }
                ]
            },
            "search": {
                "mode": "match"
            }
        },
        {
            "link": [
                {
                    "relation": "self",
                    "url": "https://appmarket.epic.com/interconnect-amcurprd-oauth/api/FHIR/R4/Encounter/e4k070YuB203WDSAIqJsmpg3"
                }
            ],
            "fullUrl": "https://appmarket.epic.com/interconnect-amcurprd-oauth/api/FHIR/R4/Encounter/e4k070YuB203WDSAIqJsmpg3",
            "resource": {
                "resourceType": "Encounter",
                "id": "e4k070YuB203WDSAIqJsmpg3",
                "identifier": [
                    {
                        "use": "usual",
                        "system": "urn:oid:1.2.840.114350.1.13.0.1.7.3.698084.8",
                        "value": "6288"
                    }
                ],
                "status": "planned",
                "class": {
                    "system": "urn:oid:1.2.840.114350.1.72.1.7.7.10.696784.13260",
                    "code": "3",
                    "display": "Admission"
                },
                "type": [
                    {
                        "coding": [
                            {
                                "system": "urn:oid:1.2.840.114350.1.13.0.1.7.10.698084.10110",
                                "code": "101",
                                "display": "Inpatient"
                            }
                        ],
                        "text": "Inpatient"
                    },
                    {
                        "coding": [
                            {
                                "system": "urn:oid:1.2.840.114350.1.13.0.1.7.10.698084.30",
                                "code": "3",
                                "display": "Hospital Encounter"
                            }
                        ],
                        "text": "Hospital Encounter"
                    },
                    {
                        "coding": [
                            {
                                "system": "urn:oid:1.2.840.114350.1.13.0.1.7.10.698084.18875",
                                "code": "3",
                                "display": "Elective"
                            }
                        ],
                        "text": "Elective"
                    }
                ],
                "serviceType": {
                    "coding": [
                        {
                            "system": "urn:oid:1.2.840.114350.1.13.0.1.7.10.698084.18886",
                            "code": "19"
                        }
                    ]
                },
                "subject": {
                    "reference": "Patient/ejhHKeCqcbOdgfs8WKHWAqQ3",
                    "display": "Integration, Mom"
                },
                "participant": [
                    {
                        "type": [
                            {
                                "coding": [
                                    {
                                        "system": "http://hl7.org/fhir/v3/ParticipationType",
                                        "code": "ADM",
                                        "display": "admitter"
                                    }
                                ],
                                "text": "admitter"
                            }
                        ],
                        "individual": {
                            "reference": "Practitioner/eHdBpsN5eOyFCM2cUPgGuTw3",
                            "type": "Practitioner",
                            "display": "Physician Obstetrics, MD"
                        }
                    },
                    {
                        "type": [
                            {
                                "coding": [
                                    {
                                        "system": "http://hl7.org/fhir/v3/ParticipationType",
                                        "code": "ATND",
                                        "display": "attender"
                                    }
                                ],
                                "text": "attender"
                            }
                        ],
                        "individual": {
                            "reference": "Practitioner/eHdBpsN5eOyFCM2cUPgGuTw3",
                            "type": "Practitioner",
                            "display": "Physician Obstetrics, MD"
                        }
                    }
                ],
                "period": {
                    "start": "2012-06-16T20:16:00Z",
                    "end": "2173-09-27T21:16:00Z"
                },
                "account": [
                    {
                        "identifier": {
                            "system": "urn:oid:1.2.840.114350.1.13.0.1.7.2.726582",
                            "value": "580"
                        },
                        "display": "INTEGRATED VALIDATE,MOM"
                    }
                ],
                "hospitalization": {
                    "admitSource": {
                        "coding": [
                            {
                                "system": "urn:oid:1.2.840.114350.1.13.0.1.7.10.698084.10310",
                                "code": "12"
                            }
                        ]
                    }
                },
                "location": [
                    {
                        "location": {
                            "reference": "Location/etk-blkZr.2.mHyBW6isfhjiMf0FMRauHE.XP765i1rY3",
                            "display": "EMH Labor and Delivery"
                        }
                    },
                    {
                        "location": {
                            "reference": "Location/etk-blkZr.2.mHyBW6isfhjiMf0FMRauHE.XP765i1rY3",
                            "display": "EMH Labor and Delivery"
                        }
                    },
                    {
                        "location": {
                            "reference": "Location/eQSOrLdbVrMRc68KBcTBG4A3",
                            "display": "Epic Hospital System"
                        }
                    }
                ]
            },
            "search": {
                "mode": "match"
            }
        },
        {
            "link": [
                {
                    "relation": "self",
                    "url": "https://appmarket.epic.com/interconnect-amcurprd-oauth/api/FHIR/R4/Encounter/e4it6pMCkxxqJgl5wPS1nkw3"
                }
            ],
            "fullUrl": "https://appmarket.epic.com/interconnect-amcurprd-oauth/api/FHIR/R4/Encounter/e4it6pMCkxxqJgl5wPS1nkw3",
            "resource": {
                "resourceType": "Encounter",
                "id": "e4it6pMCkxxqJgl5wPS1nkw3",
                "identifier": [
                    {
                        "use": "usual",
                        "system": "urn:oid:1.2.840.114350.1.13.0.1.7.3.698084.8",
                        "value": "6290"
                    }
                ],
                "status": "unknown",
                "class": {
                    "system": "urn:oid:1.2.840.114350.1.72.1.7.7.10.696784.13260",
                    "code": "13",
                    "display": "Support OP Encounter"
                },
                "subject": {
                    "reference": "Patient/ejhHKeCqcbOdgfs8WKHWAqQ3",
                    "display": "Integration, Mom"
                },
                "period": {
                    "start": "2010-09-06",
                    "end": "2010-09-06"
                }
            },
            "search": {
                "mode": "match"
            }
        },
        {
            "link": [
                {
                    "relation": "self",
                    "url": "https://appmarket.epic.com/interconnect-amcurprd-oauth/api/FHIR/R4/Encounter/eYDy.zjCXQiT1aYv0vM0T6A3"
                }
            ],
            "fullUrl": "https://appmarket.epic.com/interconnect-amcurprd-oauth/api/FHIR/R4/Encounter/eYDy.zjCXQiT1aYv0vM0T6A3",
            "resource": {
                "resourceType": "Encounter",
                "id": "eYDy.zjCXQiT1aYv0vM0T6A3",
                "identifier": [
                    {
                        "use": "usual",
                        "system": "urn:oid:1.2.840.114350.1.13.0.1.7.3.698084.8",
                        "value": "6291"
                    }
                ],
                "status": "unknown",
                "class": {
                    "system": "urn:oid:1.2.840.114350.1.72.1.7.7.10.696784.13260",
                    "code": "13",
                    "display": "Support OP Encounter"
                },
                "subject": {
                    "reference": "Patient/ejhHKeCqcbOdgfs8WKHWAqQ3",
                    "display": "Integration, Mom"
                },
                "period": {
                    "start": "2010-09-06",
                    "end": "2010-09-06"
                }
            },
            "search": {
                "mode": "match"
            }
        },
        {
            "link": [
                {
                    "relation": "self",
                    "url": "https://appmarket.epic.com/interconnect-amcurprd-oauth/api/FHIR/R4/Encounter/enlHiia-E-.2fo1DmXUZtEA3"
                }
            ],
            "fullUrl": "https://appmarket.epic.com/interconnect-amcurprd-oauth/api/FHIR/R4/Encounter/enlHiia-E-.2fo1DmXUZtEA3",
            "resource": {
                "resourceType": "Encounter",
                "id": "enlHiia-E-.2fo1DmXUZtEA3",
                "identifier": [
                    {
                        "use": "usual",
                        "system": "urn:oid:1.2.840.114350.1.13.0.1.7.3.698084.8",
                        "value": "6292"
                    }
                ],
                "status": "unknown",
                "class": {
                    "system": "urn:oid:1.2.840.114350.1.72.1.7.7.10.696784.13260",
                    "code": "13",
                    "display": "Support OP Encounter"
                },
                "subject": {
                    "reference": "Patient/ejhHKeCqcbOdgfs8WKHWAqQ3",
                    "display": "Integration, Mom"
                },
                "period": {
                    "start": "2010-01-03",
                    "end": "2010-01-03"
                }
            },
            "search": {
                "mode": "match"
            }
        },
        {
            "link": [
                {
                    "relation": "self",
                    "url": "https://appmarket.epic.com/interconnect-amcurprd-oauth/api/FHIR/R4/Encounter/eU2dxRZOP4aTTISykWVguWg3"
                }
            ],
            "fullUrl": "https://appmarket.epic.com/interconnect-amcurprd-oauth/api/FHIR/R4/Encounter/eU2dxRZOP4aTTISykWVguWg3",
            "resource": {
                "resourceType": "Encounter",
                "id": "eU2dxRZOP4aTTISykWVguWg3",
                "identifier": [
                    {
                        "use": "usual",
                        "system": "urn:oid:1.2.840.114350.1.13.0.1.7.3.698084.8",
                        "value": "6293"
                    }
                ],
                "status": "unknown",
                "class": {
                    "system": "urn:oid:1.2.840.114350.1.72.1.7.7.10.696784.13260",
                    "code": "13",
                    "display": "Support OP Encounter"
                },
                "subject": {
                    "reference": "Patient/ejhHKeCqcbOdgfs8WKHWAqQ3",
                    "display": "Integration, Mom"
                },
                "period": {
                    "start": "2010-01-03",
                    "end": "2010-01-03"
                }
            },
            "search": {
                "mode": "match"
            }
        },
        {
            "link": [
                {
                    "relation": "self",
                    "url": "https://appmarket.epic.com/interconnect-amcurprd-oauth/api/FHIR/R4/EpisodeOfCare/ePry2C4GIHlKH6KpkEu11PA3"
                }
            ],
            "fullUrl": "https://appmarket.epic.com/interconnect-amcurprd-oauth/api/FHIR/R4/EpisodeOfCare/ePry2C4GIHlKH6KpkEu11PA3",
            "resource": {
                "resourceType": "EpisodeOfCare",
                "id": "ePry2C4GIHlKH6KpkEu11PA3",
                "extension": [
                    {
                        "valueString": "Pregnancy",
                        "url": "http://open.epic.com/FHIR/StructureDefinition/extension/episode-name"
                    }
                ],
                "status": "finished",
                "type": [
                    {
                        "coding": [
                            {
                                "system": "urn:oid:1.2.840.114350.1.13.0.1.7.2.726668",
                                "code": "2",
                                "display": "Pregnancy"
                            },
                            {
                                "system": "urn:oid:1.2.840.114350.1.13.0.1.7.4.726668.130",
                                "code": "1",
                                "display": "Obstetrics"
                            }
                        ],
                        "text": "Pregnancy"
                    }
                ],
                "patient": {
                    "reference": "Patient/ejhHKeCqcbOdgfs8WKHWAqQ3",
                    "type": "Patient",
                    "display": "Integration, Mom"
                },
                "period": {
                    "start": "2012-05-08",
                    "end": "2017-07-05"
                },
                "team": [
                    {
                        "reference": "CareTeam/eTjxrAZyUuxPyxhoFUro0QPD9jDuRjVqDFVCzkw9-sDI3",
                        "type": "CareTeam"
                    }
                ]
            },
            "search": {
                "mode": "include"
            }
        },
        {
            "link": [
                {
                    "relation": "self",
                    "url": "https://appmarket.epic.com/interconnect-amcurprd-oauth/api/FHIR/R4/Patient/ejhHKeCqcbOdgfs8WKHWAqQ3"
                }
            ],
            "fullUrl": "https://appmarket.epic.com/interconnect-amcurprd-oauth/api/FHIR/R4/Patient/ejhHKeCqcbOdgfs8WKHWAqQ3",
            "resource": {
                "resourceType": "Patient",
                "id": "ejhHKeCqcbOdgfs8WKHWAqQ3",
                "extension": [
                    {
                        "extension": [
                            {
                                "valueCoding": {
                                    "system": "urn:oid:2.16.840.1.113883.6.238",
                                    "code": "2106-3",
                                    "display": "White"
                                },
                                "url": "ombCategory"
                            },
                            {
                                "valueString": "White",
                                "url": "text"
                            }
                        ],
                        "url": "http://hl7.org/fhir/us/core/StructureDefinition/us-core-race"
                    },
                    {
                        "extension": [
                            {
                                "valueCoding": {
                                    "system": "urn:oid:2.16.840.1.113883.6.238",
                                    "code": "2186-5",
                                    "display": "Not Hispanic or Latino"
                                },
                                "url": "ombCategory"
                            },
                            {
                                "valueString": "Not Hispanic or Latino",
                                "url": "text"
                            }
                        ],
                        "url": "http://hl7.org/fhir/us/core/StructureDefinition/us-core-ethnicity"
                    },
                    {
                        "valueCodeableConcept": {
                            "coding": [
                                {
                                    "system": "urn:oid:1.2.840.114350.1.13.0.1.7.10.698084.130.657370.19999000",
                                    "code": "female",
                                    "display": "female"
                                }
                            ]
                        },
                        "url": "http://open.epic.com/FHIR/StructureDefinition/extension/legal-sex"
                    },
                    {
                        "valueCodeableConcept": {
                            "coding": [
                                {
                                    "system": "urn:oid:1.2.840.114350.1.13.0.1.7.10.698084.130.657370.19999000",
                                    "code": "female",
                                    "display": "female"
                                }
                            ]
                        },
                        "url": "http://open.epic.com/FHIR/StructureDefinition/extension/sex-for-clinical-use"
                    },
                    {
                        "valueCode": "F",
                        "url": "http://hl7.org/fhir/us/core/StructureDefinition/us-core-birthsex"
                    }
                ],
                "identifier": [
                    {
                        "use": "usual",
                        "system": "urn:oid:2.16.840.1.113883.4.1",
                        "value": "511-86-1150"
                    },
                    {
                        "use": "usual",
                        "type": {
                            "text": "CEID"
                        },
                        "system": "urn:epic:apporchard.curprod",
                        "value": "AO1LC733PPK2K4J"
                    },
                    {
                        "use": "usual",
                        "type": {
                            "text": "EPIC"
                        },
                        "system": "urn:oid:1.2.840.114350.1.1",
                        "value": "E3246"
                    },
                    {
                        "use": "usual",
                        "type": {
                            "text": "EXTERNAL"
                        },
                        "system": "urn:oid:1.2.840.114350.1.13.0.1.7.2.698084",
                        "value": "Z4941"
                    },
                    {
                        "use": "usual",
                        "type": {
                            "text": "FHIR"
                        },
                        "system": "http://open.epic.com/FHIR/StructureDefinition/patient-dstu2-fhir-id",
                        "value": "T2Ld8qjRbt3vbSvBZHqokP5hWJ9yLacWgTHhmj8IbWLUB"
                    },
                    {
                        "use": "usual",
                        "type": {
                            "text": "FHIR STU3"
                        },
                        "system": "http://open.epic.com/FHIR/StructureDefinition/patient-fhir-id",
                        "value": "ejhHKeCqcbOdgfs8WKHWAqQ3"
                    },
                    {
                        "use": "usual",
                        "type": {
                            "text": "INTERNAL"
                        },
                        "system": "urn:oid:1.2.840.114350.1.13.0.1.7.2.698084",
                        "value": "     Z4941"
                    },
                    {
                        "use": "usual",
                        "type": {
                            "text": "MRN"
                        },
                        "system": "urn:oid:1.2.840.114350.1.13.0.1.7.5.737384.14",
                        "value": "202996"
                    }
                ],
                "active": true,
                "name": [
                    {
                        "use": "official",
                        "text": "Mom Integration",
                        "family": "Integration",
                        "given": [
                            "Mom"
                        ]
                    },
                    {
                        "use": "usual",
                        "text": "Mom Integration",
                        "family": "Integration",
                        "given": [
                            "Mom"
                        ]
                    }
                ],
                "telecom": [
                    {
                        "system": "phone",
                        "value": "443-567-7654",
                        "use": "home"
                    }
                ],
                "gender": "female",
                "birthDate": "1984-12-13",
                "deceasedBoolean": false,
                "address": [
                    {
                        "use": "home",
                        "line": [
                            "345 Main Street "
                        ],
                        "city": "madison",
                        "state": "WI",
                        "postalCode": "53719",
                        "country": "US"
                    }
                ],
                "maritalStatus": {
                    "text": "Married"
                },
                "contact": [
                    {
                        "relationship": [
                            {
                                "coding": [
                                    {
                                        "system": "http://terminology.hl7.org/CodeSystem/v2-0131",
                                        "code": "C",
                                        "display": "Emergency Contact"
                                    },
                                    {
                                        "system": "http://terminology.hl7.org/CodeSystem/v2-0131",
                                        "code": "N",
                                        "display": "Next-of-Kin"
                                    },
                                    {
                                        "system": "urn:oid:1.2.840.114350.1.13.0.1.7.4.827665.1000",
                                        "code": "8",
                                        "display": "Mother"
                                    }
                                ],
                                "text": "Mother"
                            }
                        ],
                        "name": {
                            "use": "usual",
                            "text": "Validate,Mom Two"
                        },
                        "telecom": [
                            {
                                "system": "phone",
                                "value": "555-666-7777",
                                "use": "home"
                            }
                        ]
                    }
                ],
                "communication": [
                    {
                        "language": {
                            "coding": [
                                {
                                    "system": "urn:ietf:bcp:47",
                                    "code": "en",
                                    "display": "English"
                                }
                            ],
                            "text": "English"
                        },
                        "preferred": true
                    }
                ],
                "managingOrganization": {
                    "reference": "Organization/enRyWnSP963FYDpoks4NHOA3",
                    "display": "Epic Hospital System"
                }
            },
            "search": {
                "mode": "include"
            }
        },
        {
            "link": [
                {
                    "relation": "self",
                    "url": "https://appmarket.epic.com/interconnect-amcurprd-oauth/api/FHIR/R4/Encounter/er91dV5GfzqKC4B61EEMp7w3"
                }
            ],
            "fullUrl": "https://appmarket.epic.com/interconnect-amcurprd-oauth/api/FHIR/R4/Encounter/er91dV5GfzqKC4B61EEMp7w3",
            "resource": {
                "resourceType": "Encounter",
                "id": "er91dV5GfzqKC4B61EEMp7w3",
                "extension": [
                    {
                        "valueBoolean": false,
                        "url": "http://open.epic.com/FHIR/StructureDefinition/extension/accidentrelated"
                    }
                ],
                "identifier": [
                    {
                        "use": "usual",
                        "system": "urn:oid:1.2.840.114350.1.13.0.1.7.3.698084.8",
                        "value": "6286"
                    }
                ],
                "status": "in-progress",
                "class": {
                    "system": "urn:oid:1.2.840.114350.1.72.1.7.7.10.696784.13260",
                    "code": "3",
                    "display": "Admission"
                },
                "type": [
                    {
                        "coding": [
                            {
                                "system": "urn:oid:1.2.840.114350.1.13.0.1.7.10.698084.10110",
                                "code": "101",
                                "display": "Inpatient"
                            }
                        ],
                        "text": "Inpatient"
                    },
                    {
                        "coding": [
                            {
                                "system": "urn:oid:1.2.840.114350.1.13.0.1.7.10.698084.30",
                                "code": "3",
                                "display": "Hospital Encounter"
                            }
                        ],
                        "text": "Hospital Encounter"
                    },
                    {
                        "coding": [
                            {
                                "system": "urn:oid:1.2.840.114350.1.13.0.1.7.10.698084.18875",
                                "code": "3",
                                "display": "Elective"
                            }
                        ],
                        "text": "Elective"
                    }
                ],
                "serviceType": {
                    "coding": [
                        {
                            "system": "urn:oid:1.2.840.114350.1.13.0.1.7.10.698084.18886",
                            "code": "117",
                            "display": "Obstetrics"
                        }
                    ],
                    "text": "Obstetrics"
                },
                "subject": {
                    "reference": "Patient/ejhHKeCqcbOdgfs8WKHWAqQ3",
                    "display": "Integration, Mom"
                },
                "episodeOfCare": [
                    {
                        "reference": "EpisodeOfCare/ePry2C4GIHlKH6KpkEu11PA3",
                        "type": "EpisodeOfCare",
                        "display": "Pregnancy"
                    }
                ],
                "participant": [
                    {
                        "type": [
                            {
                                "coding": [
                                    {
                                        "system": "http://hl7.org/fhir/v3/ParticipationType",
                                        "code": "ADM",
                                        "display": "admitter"
                                    }
                                ],
                                "text": "admitter"
                            }
                        ],
                        "individual": {
                            "reference": "Practitioner/eHdBpsN5eOyFCM2cUPgGuTw3",
                            "type": "Practitioner",
                            "display": "Physician Obstetrics, MD"
                        }
                    },
                    {
                        "type": [
                            {
                                "coding": [
                                    {
                                        "system": "http://hl7.org/fhir/v3/ParticipationType",
                                        "code": "ATND",
                                        "display": "attender"
                                    }
                                ],
                                "text": "attender"
                            }
                        ],
                        "period": {
                            "start": "2012-12-07T14:26:00Z"
                        },
                        "individual": {
                            "reference": "Practitioner/eHdBpsN5eOyFCM2cUPgGuTw3",
                            "type": "Practitioner",
                            "display": "Physician Obstetrics, MD"
                        }
                    }
                ],
                "period": {
                    "start": "2012-12-07T14:27:17Z"
                },
                "account": [
                    {
                        "identifier": {
                            "system": "urn:oid:1.2.840.114350.1.13.0.1.7.2.726582",
                            "value": "581"
                        },
                        "display": "INTEGRATION,MOM"
                    }
                ],
                "hospitalization": {
                    "extension": [
                        {
                            "valueDateTime": "2012-12-07T14:27:17Z",
                            "url": "http://open.epic.com/FHIR/StructureDefinition/extension/ip-admit-datetime"
                        }
                    ],
                    "admitSource": {
                        "coding": [
                            {
                                "system": "urn:oid:1.2.840.114350.1.13.0.1.7.10.698084.10310",
                                "code": "12"
                            }
                        ]
                    }
                },
                "location": [
                    {
                        "location": {
                            "reference": "Location/etk-blkZr.2.mHyBW6isfhjiMf0FMRauHE.XP765i1rY3",
                            "display": "EMH Labor and Delivery"
                        },
                        "period": {
                            "start": "2012-12-07T14:27:00Z"
                        }
                    },
                    {
                        "location": {
                            "reference": "Location/etk-blkZr.2.mHyBW6isfhjiMf0FMRauHE.XP765i1rY3",
                            "display": "EMH Labor and Delivery"
                        }
                    },
                    {
                        "location": {
                            "reference": "Location/eQSOrLdbVrMRc68KBcTBG4A3",
                            "display": "Epic Hospital System"
                        }
                    },
                    {
                        "location": {
                            "reference": "Location/ePFX2o81EiL97tL7f-mm2cQ3",
                            "display": "Waiting Room"
                        },
                        "physicalType": {
                            "coding": [
                                {
                                    "system": "http://terminology.hl7.org/CodeSystem/location-physical-type",
                                    "code": "ro",
                                    "display": "Room"
                                }
                            ],
                            "text": "Room"
                        }
                    },
                    {
                        "location": {
                            "identifier": {
                                "system": "urn:oid:1.2.840.114350.1.13.0.1.7.2.666968",
                                "value": "463"
                            },
                            "display": "WAITING ROOM"
                        },
                        "physicalType": {
                            "coding": [
                                {
                                    "system": "http://terminology.hl7.org/CodeSystem/location-physical-type",
                                    "code": "bd",
                                    "display": "Bed"
                                }
                            ],
                            "text": "Bed"
                        }
                    }
                ]
            },
            "search": {
                "mode": "include"
            }
        }
    ]
}