{
    "resourceType": "Bundle",
    "type": "searchset",
    "total": 6,
    "link": [
        {
            "relation": "self",
            "url": "https://appmarket.epic.com/interconnect-amcurprd-oauth/api/FHIR/R4/Encounter?_include=Encounter:condition&_include=Encounter:episodeOfCare&_include=Encounter:partOf&_include=Encounter:subject&_format=json&patient=eH9I4tNVJGBetzJL9ZKBjYg3"
        }
    ],
    "entry": [
        {
            "link": [
                {
                    "relation": "self",
                    "url": "https://appmarket.epic.com/interconnect-amcurprd-oauth/api/FHIR/R4/Encounter/euQtdSTpAI3tAlZFxRs7JPg3"
                }
            ],
            "fullUrl": "https://appmarket.epic.com/interconnect-amcurprd-oauth/api/FHIR/R4/Encounter/euQtdSTpAI3tAlZFxRs7JPg3",
            "resource": {
                "resourceType": "Encounter",
                "id": "euQtdSTpAI3tAlZFxRs7JPg3",
                "identifier": [
                    {
                        "use": "usual",
                        "system": "urn:oid:1.2.840.114350.1.13.0.1.7.3.698084.8",
                        "value": "19891"
                    }
                ],
                "status": "finished",
                "class": {
                    "system": "urn:oid:1.2.840.114350.1.72.1.7.7.10.696784.13260",
                    "code": "13",
                    "display": "Support OP Encounter"
                },
                "type": [
                    {
                        "coding": [
                            {
                                "system": "urn:oid:1.2.840.114350.1.13.0.1.7.10.698084.30",
                                "code": "150",
                                "display": "Abstract"
                            }
                        ],
                        "text": "Abstract"
                    }
                ],
                "subject": {
                    "reference": "Patient/eH9I4tNVJGBetzJL9ZKBjYg3",
                    "display": "Heart, Howard Txpa"
                },
                "episodeOfCare": [
                    {
                        "reference": "EpisodeOfCare/e6if0cjQV.2ucSh-2tCdkKA3",
                        "type": "EpisodeOfCare",
                        "display": "Heart Transplant Evaluation \u2013 6/29/2014"
                    }
                ],
                "period": {
                    "start": "2014-05-24",
                    "end": "2014-05-24"
                },
                "reasonCode": [
                    {
                        "coding": [
                            {
                                "system": "urn:oid:1.2.840.114350.1.13.0.1.7.2.728286",
                                "code": "2",
                                "display": "Abstract"
                            }
                        ],
                        "text": "Abstract"
                    }
                ],
                "location": [
                    {
                        "location": {
                            "reference": "Location/eTZ6583PWEaETks.nuluz02NygA.hvRNioKSnBwhm.DA3",
                            "display": "EMH Cardiothoracic Transplant"
                        }
                    }
                ]
            },
            "search": {
                "mode": "match"
            }
        },
        {
            "link": [
                {
                    "relation": "self",
                    "url": "https://appmarket.epic.com/interconnect-amcurprd-oauth/api/FHIR/R4/Encounter/eLXnu1kJ2PYBwsss7BG2bXw3"
                }
            ],
            "fullUrl": "https://appmarket.epic.com/interconnect-amcurprd-oauth/api/FHIR/R4/Encounter/eLXnu1kJ2PYBwsss7BG2bXw3",
            "resource": {
                "resourceType": "Encounter",
                "id": "eLXnu1kJ2PYBwsss7BG2bXw3",
                "identifier": [
                    {
                        "use": "usual",
                        "system": "urn:oid:1.2.840.114350.1.13.0.1.7.3.698084.8",
                        "value": "19890"
                    }
                ],
                "status": "finished",
                "class": {
                    "system": "urn:oid:1.2.840.114350.1.72.1.7.7.10.696784.13260",
                    "code": "13",
                    "display": "Support OP Encounter"
                },
                "type": [
                    {
                        "coding": [
                            {
                                "system": "urn:oid:1.2.840.114350.1.13.0.1.7.10.698084.30",
                                "code": "150",
                                "display": "Abstract"
                            }
                        ],
                        "text": "Abstract"
                    }
                ],
                "subject": {
                    "reference": "Patient/eH9I4tNVJGBetzJL9ZKBjYg3",
                    "display": "Heart, Howard Txpa"
                },
                "period": {
                    "start": "2014-05-24",
                    "end": "2014-05-24"
                },
                "location": [
                    {
                        "location": {
                            "reference": "Location/e.zUbzUZH9WErlJkdM0-hMZY7Z6JkVK.ftghaWm0ZCLs3",
                            "display": "EMH Abdominal Transplant"
                        }
                    }
                ]
            },
            "search": {
                "mode": "match"
            }
        },
        {
            "link": [
                {
                    "relation": "self",
                    "url": "https://appmarket.epic.com/interconnect-amcurprd-oauth/api/FHIR/R4/Encounter/eAzC6P5XQLYp7tRbYlg.Yhg3"
                }
            ],
            "fullUrl": "https://appmarket.epic.com/interconnect-amcurprd-oauth/api/FHIR/R4/Encounter/eAzC6P5XQLYp7tRbYlg.Yhg3",
            "resource": {
                "resourceType": "Encounter",
                "id": "eAzC6P5XQLYp7tRbYlg.Yhg3",
                "identifier": [
                    {
                        "use": "usual",
                        "system": "urn:oid:1.2.840.114350.1.13.0.1.7.3.698084.8",
                        "value": "19889"
                    }
                ],
                "status": "finished",
                "class": {
                    "system": "urn:oid:1.2.840.114350.1.72.1.7.7.10.696784.13260",
                    "code": "13",
                    "display": "Support OP Encounter"
                },
                "type": [
                    {
                        "coding": [
                            {
                                "system": "urn:oid:1.2.840.114350.1.13.0.1.7.10.698084.30",
                                "code": "70",
                                "display": "Telephone"
                            }
                        ],
                        "text": "Telephone"
                    }
                ],
                "subject": {
                    "reference": "Patient/eH9I4tNVJGBetzJL9ZKBjYg3",
                    "display": "Heart, Howard Txpa"
                },
                "episodeOfCare": [
                    {
                        "reference": "EpisodeOfCare/e6if0cjQV.2ucSh-2tCdkKA3",
                        "type": "EpisodeOfCare",
                        "display": "Heart Transplant Evaluation \u2013 6/29/2014"
                    }
                ],
                "period": {
                    "start": "2014-04-22",
                    "end": "2014-04-22"
                },
                "reasonCode": [
                    {
                        "coding": [
                            {
                                "system": "urn:oid:1.2.840.114350.1.13.0.1.7.2.728286",
                                "code": "2050000016",
                                "display": "Referral - Heart Txp"
                            }
                        ],
                        "text": "Referral - Heart Txp"
                    }
                ],
                "location": [
                    {
                        "location": {
                            "reference": "Location/e.zUbzUZH9WErlJkdM0-hMZY7Z6JkVK.ftghaWm0ZCLs3",
                            "display": "EMH Abdominal Transplant"
                        }
                    }
                ]
            },
            "search": {
                "mode": "match"
            }
        },
        {
            "link": [
                {
                    "relation": "self",
                    "url": "https://appmarket.epic.com/interconnect-amcurprd-oauth/api/FHIR/R4/Encounter/eCOzbnH0xNcru2NpIWG1ipg3"
                }
            ],
            "fullUrl": "https://appmarket.epic.com/interconnect-amcurprd-oauth/api/FHIR/R4/Encounter/eCOzbnH0xNcru2NpIWG1ipg3",
            "resource": {
                "resourceType": "Encounter",
                "id": "eCOzbnH0xNcru2NpIWG1ipg3",
                "identifier": [
                    {
                        "use": "usual",
                        "system": "urn:oid:1.2.840.114350.1.13.0.1.7.3.698084.8",
                        "value": "19887"
                    }
                ],
                "status": "finished",
                "class": {
                    "system": "urn:oid:1.2.840.114350.1.72.1.7.7.10.696784.13260",
                    "code": "13",
                    "display": "Support OP Encounter"
                },
                "type": [
                    {
                        "coding": [
                            {
                                "system": "urn:oid:1.2.840.114350.1.13.0.1.7.10.698084.30",
                                "code": "101",
                                "display": "Office Visit"
                            }
                        ],
                        "text": "Office Visit"
                    }
                ],
                "subject": {
                    "reference": "Patient/eH9I4tNVJGBetzJL9ZKBjYg3",
                    "display": "Heart, Howard Txpa"
                },
                "participant": [
                    {
                        "type": [
                            {
                                "text": "losAuthorizingPhysician"
                            }
                        ],
                        "individual": {
                            "reference": "Practitioner/emhilH6WzKBpangkpuWtgdQ3",
                            "type": "Practitioner",
                            "display": "Physician Phoenix, MD"
                        }
                    }
                ],
                "period": {
                    "start": "2013-12-11",
                    "end": "2013-12-11"
                },
                "reasonCode": [
                    {
                        "coding": [
                            {
                                "system": "urn:oid:1.2.840.114350.1.13.0.1.7.2.728286",
                                "code": "160302",
                                "display": "Hypertension"
                            }
                        ],
                        "text": "Hypertension"
                    },
                    {
                        "coding": [
                            {
                                "system": "urn:oid:1.2.840.114350.1.13.0.1.7.2.728286",
                                "code": "182",
                                "display": "Hyperlipidemia"
                            }
                        ],
                        "text": "Hyperlipidemia"
                    },
                    {
                        "coding": [
                            {
                                "system": "urn:oid:1.2.840.114350.1.13.0.1.7.2.728286",
                                "code": "127",
                                "display": "Congestive Heart Failure"
                            }
                        ],
                        "text": "Congestive Heart Failure"
                    }
                ],
                "location": [
                    {
                        "location": {
                            "reference": "Location/e4W4rmGe9QzuGm2Dy4NBqVc0KDe6yGld6HW95UuN-Qd03",
                            "display": "EMC Family Medicine"
                        }
                    }
                ]
            },
            "search": {
                "mode": "match"
            }
        },
        {
            "link": [
                {
                    "relation": "self",
                    "url": "https://appmarket.epic.com/interconnect-amcurprd-oauth/api/FHIR/R4/Encounter/eTdJujLtAps4HodFCTPmRqQ3"
                }
            ],
            "fullUrl": "https://appmarket.epic.com/interconnect-amcurprd-oauth/api/FHIR/R4/Encounter/eTdJujLtAps4HodFCTPmRqQ3",
            "resource": {
                "resourceType": "Encounter",
                "id": "eTdJujLtAps4HodFCTPmRqQ3",
                "identifier": [
                    {
                        "use": "usual",
                        "system": "urn:oid:1.2.840.114350.1.13.0.1.7.3.698084.8",
                        "value": "19885"
                    }
                ],
                "status": "finished",
                "class": {
                    "system": "urn:oid:1.2.840.114350.1.72.1.7.7.10.696784.13260",
                    "code": "13",
                    "display": "Support OP Encounter"
                },
                "type": [
                    {
                        "coding": [
                            {
                                "system": "urn:oid:1.2.840.114350.1.13.0.1.7.10.698084.30",
                                "code": "101",
                                "display": "Office Visit"
                            }
                        ],
                        "text": "Office Visit"
                    }
                ],
                "subject": {
                    "reference": "Patient/eH9I4tNVJGBetzJL9ZKBjYg3",
                    "display": "Heart, Howard Txpa"
                },
                "participant": [
                    {
                        "type": [
                            {
                                "text": "losAuthorizingPhysician"
                            }
                        ],
                        "individual": {
                            "reference": "Practitioner/emhilH6WzKBpangkpuWtgdQ3",
                            "type": "Practitioner",
                            "display": "Physician Phoenix, MD"
                        }
                    }
                ],
                "period": {
                    "start": "2013-10-09",
                    "end": "2013-10-09"
                },
                "reasonCode": [
                    {
                        "coding": [
                            {
                                "system": "urn:oid:1.2.840.114350.1.13.0.1.7.2.728286",
                                "code": "127",
                                "display": "Congestive Heart Failure"
                            }
                        ],
                        "text": "Congestive Heart Failure"
                    },
                    {
                        "coding": [
                            {
                                "system": "urn:oid:1.2.840.114350.1.13.0.1.7.2.728286",
                                "code": "182",
                                "display": "Hyperlipidemia"
                            }
                        ],
                        "text": "Hyperlipidemia"
                    }
                ],
                "location": [
                    {
                        "location": {
                            "reference": "Location/e4W4rmGe9QzuGm2Dy4NBqVc0KDe6yGld6HW95UuN-Qd03",
                            "display": "EMC Family Medicine"
                        }
                    }
                ]
            },
            "search": {
                "mode": "match"
            }
        },
        {
            "link": [
                {
                    "relation": "self",
                    "url": "https://appmarket.epic.com/interconnect-amcurprd-oauth/api/FHIR/R4/Encounter/eXQznv5FBlehGIBGkVYsVVg3"
                }
            ],
            "fullUrl": "https://appmarket.epic.com/interconnect-amcurprd-oauth/api/FHIR/R4/Encounter/eXQznv5FBlehGIBGkVYsVVg3",
            "resource": {
                "resourceType": "Encounter",
                "id": "eXQznv5FBlehGIBGkVYsVVg3",
                "identifier": [
                    {
                        "use": "usual",
                        "system": "urn:oid:1.2.840.114350.1.13.0.1.7.3.698084.8",
                        "value": "19883"
                    }
                ],
                "status": "finished",
                "class": {
                    "system": "urn:oid:1.2.840.114350.1.72.1.7.7.10.696784.13260",
                    "code": "13",
                    "display": "Support OP Encounter"
                },
                "type": [
                    {
                        "coding": [
                            {
                                "system": "urn:oid:1.2.840.114350.1.13.0.1.7.10.698084.30",
                                "code": "101",
                                "display": "Office Visit"
                            }
                        ],
                        "text": "Office Visit"
                    }
                ],
                "subject": {
                    "reference": "Patient/eH9I4tNVJGBetzJL9ZKBjYg3",
                    "display": "Heart, Howard Txpa"
                },
                "participant": [
                    {
                        "type": [
                            {
                                "text": "losAuthorizingPhysician"
                            }
                        ],
                        "individual": {
                            "reference": "Practitioner/emhilH6WzKBpangkpuWtgdQ3",
                            "type": "Practitioner",
                            "display": "Physician Phoenix, MD"
                        }
                    }
                ],
                "period": {
                    "start": "2013-04-10",
                    "end": "2013-04-10"
                },
                "reasonCode": [
                    {
                        "coding": [
                            {
                                "system": "urn:oid:1.2.840.114350.1.13.0.1.7.2.728286",
                                "code": "127",
                                "display": "Congestive Heart Failure"
                            }
                        ],
                        "text": "Congestive Heart Failure"
                    },
                    {
                        "coding": [
                            {
                                "system": "urn:oid:1.2.840.114350.1.13.0.1.7.2.728286",
                                "code": "182",
                                "display": "Hyperlipidemia"
                            }
                        ],
                        "text": "Hyperlipidemia"
                    }
                ],
                "location": [
                    {
                        "location": {
                            "reference": "Location/e4W4rmGe9QzuGm2Dy4NBqVc0KDe6yGld6HW95UuN-Qd03",
                            "display": "EMC Family Medicine"
                        }
                    }
                ]
            },
            "search": {
                "mode": "match"
            }
        },
        {
            "link": [
                {
                    "relation": "self",
                    "url": "https://appmarket.epic.com/interconnect-amcurprd-oauth/api/FHIR/R4/EpisodeOfCare/e6if0cjQV.2ucSh-2tCdkKA3"
                }
            ],
            "fullUrl": "https://appmarket.epic.com/interconnect-amcurprd-oauth/api/FHIR/R4/EpisodeOfCare/e6if0cjQV.2ucSh-2tCdkKA3",
            "resource": {
                "resourceType": "EpisodeOfCare",
                "id": "e6if0cjQV.2ucSh-2tCdkKA3",
                "extension": [
                    {
                        "valueString": "Heart Transplant Evaluation \u2013 6/29/2014",
                        "url": "http://open.epic.com/FHIR/StructureDefinition/extension/episode-name"
                    },
                    {
                        "valueCodeableConcept": {
                            "coding": [
                                {
                                    "system": "urn:oid:1.2.840.114350.1.72.1.7.7.10.728366.30035",
                                    "code": "2",
                                    "display": "Recipient"
                                }
                            ],
                            "text": "Recipient"
                        },
                        "url": "http://open.epic.com/FHIR/StructureDefinition/extension/transplant-donor-or-recipient"
                    },
                    {
                        "extension": [
                            {
                                "valueCodeableConcept": {
                                    "coding": [
                                        {
                                            "system": "urn:oid:1.2.840.114350.1.72.1.7.7.10.728366.30030",
                                            "code": "64",
                                            "display": "Heart"
                                        }
                                    ],
                                    "text": "Heart"
                                },
                                "url": "organ-class"
                            },
                            {
                                "valueReference": {
                                    "reference": "Practitioner/e4fBRdwCD6bWDI76z9Bn9WA3",
                                    "type": "Practitioner",
                                    "display": "Coordinator Phoenix, RN"
                                },
                                "url": "coordinator"
                            }
                        ],
                        "url": "http://open.epic.com/FHIR/StructureDefinition/extension/transplant-organ-coordinator"
                    },
                    {
                        "extension": [
                            {
                                "valueCodeableConcept": {
                                    "coding": [
                                        {
                                            "system": "urn:oid:1.2.840.114350.1.72.1.7.7.10.728366.30105",
                                            "code": "20",
                                            "display": "Evaluation"
                                        }
                                    ],
                                    "text": "Evaluation"
                                },
                                "url": "phase"
                            },
                            {
                                "valueString": "Active",
                                "url": "status"
                            },
                            {
                                "valueDate": "2014-06-29",
                                "url": "effective"
                            }
                        ],
                        "url": "http://open.epic.com/FHIR/StructureDefinition/extension/transplant-phase-status"
                    },
                    {
                        "valueDate": "2014-04-22",
                        "url": "http://open.epic.com/FHIR/StructureDefinition/extension/transplant-event-referral-date"
                    },
                    {
                        "valuePeriod": {
                            "start": "2014-06-29"
                        },
                        "url": "http://open.epic.com/FHIR/StructureDefinition/extension/transplant-event-evaluation"
                    },
                    {
                        "valueString": "University of Wisconsin Hospital and Clinics (Madison, WI)",
                        "url": "http://open.epic.com/FHIR/StructureDefinition/extension/transplant-center"
                    }
                ],
                "status": "active",
                "type": [
                    {
                        "coding": [
                            {
                                "system": "urn:oid:1.2.840.114350.1.13.0.1.7.2.726668",
                                "code": "49",
                                "display": "Transplant"
                            },
                            {
                                "system": "urn:oid:1.2.840.114350.1.13.0.1.7.4.726668.130",
                                "code": "4",
                                "display": "Transplant"
                            }
                        ],
                        "text": "Transplant"
                    }
                ],
                "patient": {
                    "reference": "Patient/eH9I4tNVJGBetzJL9ZKBjYg3",
                    "type": "Patient",
                    "display": "Heart, Howard Txpa"
                },
                "period": {
                    "start": "2014-04-22"
                },
                "team": [
                    {
                        "reference": "CareTeam/ej1onYeC7e0mNeR.7TUapLYH8sYiIMs1rdHgBatN2cuw3",
                        "type": "CareTeam"
                    }
                ]
            },
            "search": {
                "mode": "include"
            }
        },
        {
            "link": [
                {
                    "relation": "self",
                    "url": "https://appmarket.epic.com/interconnect-amcurprd-oauth/api/FHIR/R4/Patient/eH9I4tNVJGBetzJL9ZKBjYg3"
                }
            ],
            "fullUrl": "https://appmarket.epic.com/interconnect-amcurprd-oauth/api/FHIR/R4/Patient/eH9I4tNVJGBetzJL9ZKBjYg3",
            "resource": {
                "resourceType": "Patient",
                "id": "eH9I4tNVJGBetzJL9ZKBjYg3",
                "extension": [
                    {
                        "extension": [
                            {
                                "valueCoding": {
                                    "system": "urn:oid:2.16.840.1.113883.6.238",
                                    "code": "2106-3",
                                    "display": "White"
                                },
                                "url": "ombCategory"
                            },
                            {
                                "valueString": "White",
                                "url": "text"
                            }
                        ],
                        "url": "http://hl7.org/fhir/us/core/StructureDefinition/us-core-race"
                    },
                    {
                        "extension": [
                            {
                                "valueCoding": {
                                    "system": "urn:oid:2.16.840.1.113883.6.238",
                                    "code": "2186-5",
                                    "display": "Not Hispanic or Latino"
                                },
                                "url": "ombCategory"
                            },
                            {
                                "valueString": "Not Hispanic or Latino",
                                "url": "text"
                            }
                        ],
                        "url": "http://hl7.org/fhir/us/core/StructureDefinition/us-core-ethnicity"
                    },
                    {
                        "valueCodeableConcept": {
                            "coding": [
                                {
                                    "system": "urn:oid:1.2.840.114350.1.13.0.1.7.10.698084.130.657370.19999000",
                                    "code": "male",
                                    "display": "male"
                                }
                            ]
                        },
                        "url": "http://open.epic.com/FHIR/StructureDefinition/extension/legal-sex"
                    },
                    {
                        "valueCodeableConcept": {
                            "coding": [
                                {
                                    "system": "urn:oid:1.2.840.114350.1.13.0.1.7.10.698084.130.657370.19999000",
                                    "code": "male",
                                    "display": "male"
                                }
                            ]
                        },
                        "url": "http://open.epic.com/FHIR/StructureDefinition/extension/sex-for-clinical-use"
                    },
                    {
                        "valueCode": "M",
                        "url": "http://hl7.org/fhir/us/core/StructureDefinition/us-core-birthsex"
                    }
                ],
                "identifier": [
                    {
                        "use": "usual",
                        "system": "urn:oid:2.16.840.1.113883.4.1",
                        "value": "851-57-6359"
                    },
                    {
                        "use": "usual",
                        "type": {
                            "text": "CEID"
                        },
                        "system": "urn:epic:apporchard.curprod",
                        "value": "AO1FK4K27M94489"
                    },
                    {
                        "use": "usual",
                        "type": {
                            "text": "EPIC"
                        },
                        "system": "urn:oid:1.2.840.114350.1.1",
                        "value": "E3720"
                    },
                    {
                        "use": "usual",
                        "type": {
                            "text": "EXTERNAL"
                        },
                        "system": "urn:oid:1.2.840.114350.1.13.0.1.7.2.698084",
                        "value": "Z5577"
                    },
                    {
                        "use": "usual",
                        "type": {
                            "text": "FHIR"
                        },
                        "system": "http://open.epic.com/FHIR/StructureDefinition/patient-dstu2-fhir-id",
                        "value": "T-oV7ryQ3jnLh.yJ0qDxU4ETKwEokjwhmuX0Jrv6ZjDkB"
                    },
                    {
                        "use": "usual",
                        "type": {
                            "text": "FHIR STU3"
                        },
                        "system": "http://open.epic.com/FHIR/StructureDefinition/patient-fhir-id",
                        "value": "eH9I4tNVJGBetzJL9ZKBjYg3"
                    },
                    {
                        "use": "usual",
                        "type": {
                            "text": "INTERNAL"
                        },
                        "system": "urn:oid:1.2.840.114350.1.13.0.1.7.2.698084",
                        "value": "     Z5577"
                    },
                    {
                        "use": "usual",
                        "type": {
                            "text": "MRN"
                        },
                        "system": "urn:oid:1.2.840.114350.1.13.0.1.7.5.737384.14",
                        "value": "203475"
                    }
                ],
                "active": true,
                "name": [
                    {
                        "use": "official",
                        "text": "Howard Txpa Heart",
                        "family": "Heart",
                        "given": [
                            "Howard",
                            "Txpa"
                        ]
                    },
                    {
                        "use": "usual",
                        "text": "Howard Txpa Heart",
                        "family": "Heart",
                        "given": [
                            "Howard",
                            "Txpa"
                        ]
                    }
                ],
                "telecom": [
                    {
                        "system": "phone",
                        "value": "555-555-5555",
                        "use": "home"
                    }
                ],
                "gender": "male",
                "birthDate": "1976-04-10",
                "deceasedBoolean": false,
                "address": [
                    {
                        "use": "home",
                        "line": [
                            "1979 Milky Way"
                        ],
                        "city": "MADISON",
                        "district": "DANE",
                        "state": "WI",
                        "postalCode": "53711",
                        "country": "US"
                    }
                ],
                "maritalStatus": {
                    "text": "Single"
                },
                "contact": [
                    {
                        "relationship": [
                            {
                                "coding": [
                                    {
                                        "system": "http://terminology.hl7.org/CodeSystem/v2-0131",
                                        "code": "C",
                                        "display": "Emergency Contact"
                                    },
                                    {
                                        "system": "http://terminology.hl7.org/CodeSystem/v2-0131",
                                        "code": "N",
                                        "display": "Next-of-Kin"
                                    },
                                    {
                                        "system": "urn:oid:1.2.840.114350.1.13.0.1.7.4.827665.1000",
                                        "code": "3",
                                        "display": "Father"
                                    }
                                ],
                                "text": "Father"
                            }
                        ],
                        "name": {
                            "use": "usual",
                            "text": "Heart,Jim A"
                        },
                        "telecom": [
                            {
                                "system": "phone",
                                "value": "555-555-5555",
                                "use": "home"
                            },
                            {
                                "system": "phone",
                                "value": "555-555-5555",
                                "use": "work"
                            }
                        ],
                        "address": {
                            "use": "home",
                            "line": [
                                "1979 Milky Way"
                            ],
                            "city": "MADISON",
                            "district": "DANE",
                            "state": "WI",
                            "postalCode": "53711",
                            "country": "US"
                        }
                    }
                ],
                "communication": [
                    {
                        "language": {
                            "coding": [
                                {
                                    "system": "urn:ietf:bcp:47",
                                    "code": "en",
                                    "display": "English"
                                }
                            ],
                            "text": "English"
                        },
                        "preferred": true
                    }
                ],
                "managingOrganization": {
                    "reference": "Organization/enRyWnSP963FYDpoks4NHOA3",
                    "display": "Epic Hospital System"
                }
            },
            "search": {
                "mode": "include"
            }
        }
    ]
}