{
    "resourceType": "Bundle",
    "type": "searchset",
    "total": 12,
    "link": [
        {
            "relation": "self",
            "url": "https://appmarket.epic.com/interconnect-amcurprd-oauth/api/FHIR/R4/Encounter?_include=Encounter:condition&_include=Encounter:episodeOfCare&_include=Encounter:partOf&_include=Encounter:subject&_format=json&patient=eAuxn-zddQFGu2MQjkde-mQ3"
        }
    ],
    "entry": [
        {
            "link": [
                {
                    "relation": "self",
                    "url": "https://appmarket.epic.com/interconnect-amcurprd-oauth/api/FHIR/R4/Encounter/eJoOpX2NVRzZ1Nx3yuMLRtg3"
                }
            ],
            "fullUrl": "https://appmarket.epic.com/interconnect-amcurprd-oauth/api/FHIR/R4/Encounter/eJoOpX2NVRzZ1Nx3yuMLRtg3",
            "resource": {
                "resourceType": "Encounter",
                "id": "eJoOpX2NVRzZ1Nx3yuMLRtg3",
                "identifier": [
                    {
                        "use": "usual",
                        "system": "urn:oid:1.2.840.114350.1.13.0.1.7.3.698084.8",
                        "value": "23038"
                    }
                ],
                "status": "finished",
                "class": {
                    "system": "urn:oid:1.2.840.114350.1.72.1.7.7.10.696784.13260",
                    "code": "13",
                    "display": "Support OP Encounter"
                },
                "type": [
                    {
                        "coding": [
                            {
                                "system": "urn:oid:1.2.840.114350.1.13.0.1.7.10.698084.30",
                                "code": "111",
                                "display": "Orders Only"
                            }
                        ],
                        "text": "Orders Only"
                    }
                ],
                "subject": {
                    "reference": "Patient/eAuxn-zddQFGu2MQjkde-mQ3",
                    "display": "Heart, Herman A"
                },
                "period": {
                    "start": "2015-10-02",
                    "end": "2015-10-02"
                },
                "location": [
                    {
                        "location": {
                            "reference": "Location/e.zUbzUZH9WErlJkdM0-hMZY7Z6JkVK.ftghaWm0ZCLs3",
                            "display": "EMH Abdominal Transplant"
                        }
                    }
                ]
            },
            "search": {
                "mode": "match"
            }
        },
        {
            "link": [
                {
                    "relation": "self",
                    "url": "https://appmarket.epic.com/interconnect-amcurprd-oauth/api/FHIR/R4/Encounter/eY645i9rjJ66eVY5SrsZmXw3"
                }
            ],
            "fullUrl": "https://appmarket.epic.com/interconnect-amcurprd-oauth/api/FHIR/R4/Encounter/eY645i9rjJ66eVY5SrsZmXw3",
            "resource": {
                "resourceType": "Encounter",
                "id": "eY645i9rjJ66eVY5SrsZmXw3",
                "identifier": [
                    {
                        "use": "usual",
                        "system": "urn:oid:1.2.840.114350.1.13.0.1.7.3.698084.8",
                        "value": "20307"
                    }
                ],
                "status": "finished",
                "class": {
                    "system": "urn:oid:1.2.840.114350.1.72.1.7.7.10.696784.13260",
                    "code": "13",
                    "display": "Support OP Encounter"
                },
                "type": [
                    {
                        "coding": [
                            {
                                "system": "urn:oid:1.2.840.114350.1.13.0.1.7.10.698084.30",
                                "code": "111",
                                "display": "Orders Only"
                            }
                        ],
                        "text": "Orders Only"
                    }
                ],
                "subject": {
                    "reference": "Patient/eAuxn-zddQFGu2MQjkde-mQ3",
                    "display": "Heart, Herman A"
                },
                "period": {
                    "start": "2015-04-14",
                    "end": "2015-04-14"
                },
                "location": [
                    {
                        "location": {
                            "reference": "Location/e4W4rmGe9QzuGm2Dy4NBqVc0KDe6yGld6HW95UuN-Qd03",
                            "display": "EMC Family Medicine"
                        }
                    }
                ]
            },
            "search": {
                "mode": "match"
            }
        },
        {
            "link": [
                {
                    "relation": "self",
                    "url": "https://appmarket.epic.com/interconnect-amcurprd-oauth/api/FHIR/R4/Encounter/eS1UytqzcX0NNURlPvMxhDg3"
                }
            ],
            "fullUrl": "https://appmarket.epic.com/interconnect-amcurprd-oauth/api/FHIR/R4/Encounter/eS1UytqzcX0NNURlPvMxhDg3",
            "resource": {
                "resourceType": "Encounter",
                "id": "eS1UytqzcX0NNURlPvMxhDg3",
                "identifier": [
                    {
                        "use": "usual",
                        "system": "urn:oid:1.2.840.114350.1.13.0.1.7.3.698084.8",
                        "value": "20281"
                    }
                ],
                "status": "in-progress",
                "class": {
                    "system": "urn:oid:1.2.840.114350.1.72.1.7.7.10.696784.13260",
                    "code": "13",
                    "display": "Support OP Encounter"
                },
                "type": [
                    {
                        "coding": [
                            {
                                "system": "urn:oid:1.2.840.114350.1.13.0.1.7.10.698084.30",
                                "code": "2522",
                                "display": "Prep for Procedure"
                            }
                        ],
                        "text": "Prep for Procedure"
                    }
                ],
                "subject": {
                    "reference": "Patient/eAuxn-zddQFGu2MQjkde-mQ3",
                    "display": "Heart, Herman A"
                },
                "period": {
                    "start": "2015-02-03",
                    "end": "2015-02-03"
                },
                "location": [
                    {
                        "location": {
                            "reference": "Location/edMTlFfH6NJ009KzsRtLjgZyfcYBTM5Zu1eEO2ZKijsg3",
                            "display": "EMC Cardiology"
                        }
                    }
                ]
            },
            "search": {
                "mode": "match"
            }
        },
        {
            "link": [
                {
                    "relation": "self",
                    "url": "https://appmarket.epic.com/interconnect-amcurprd-oauth/api/FHIR/R4/Encounter/eQorYBr0U9n7eQxdYVUH42w3"
                }
            ],
            "fullUrl": "https://appmarket.epic.com/interconnect-amcurprd-oauth/api/FHIR/R4/Encounter/eQorYBr0U9n7eQxdYVUH42w3",
            "resource": {
                "resourceType": "Encounter",
                "id": "eQorYBr0U9n7eQxdYVUH42w3",
                "identifier": [
                    {
                        "use": "usual",
                        "system": "urn:oid:1.2.840.114350.1.13.0.1.7.3.698084.8",
                        "value": "15840"
                    }
                ],
                "status": "finished",
                "class": {
                    "system": "urn:oid:1.2.840.114350.1.72.1.7.7.10.696784.13260",
                    "code": "13",
                    "display": "Support OP Encounter"
                },
                "type": [
                    {
                        "coding": [
                            {
                                "system": "urn:oid:1.2.840.114350.1.13.0.1.7.10.698084.30",
                                "code": "150",
                                "display": "Abstract"
                            }
                        ],
                        "text": "Abstract"
                    }
                ],
                "subject": {
                    "reference": "Patient/eAuxn-zddQFGu2MQjkde-mQ3",
                    "display": "Heart, Herman A"
                },
                "period": {
                    "start": "2014-06-29",
                    "end": "2014-06-29"
                },
                "location": [
                    {
                        "location": {
                            "reference": "Location/e4W4rmGe9QzuGm2Dy4NBqVc0KDe6yGld6HW95UuN-Qd03",
                            "display": "EMC Family Medicine"
                        }
                    }
                ]
            },
            "search": {
                "mode": "match"
            }
        },
        {
            "link": [
                {
                    "relation": "self",
                    "url": "https://appmarket.epic.com/interconnect-amcurprd-oauth/api/FHIR/R4/Encounter/e4oOxV8sZOn7zotx1X9r59Q3"
                }
            ],
            "fullUrl": "https://appmarket.epic.com/interconnect-amcurprd-oauth/api/FHIR/R4/Encounter/e4oOxV8sZOn7zotx1X9r59Q3",
            "resource": {
                "resourceType": "Encounter",
                "id": "e4oOxV8sZOn7zotx1X9r59Q3",
                "identifier": [
                    {
                        "use": "usual",
                        "system": "urn:oid:1.2.840.114350.1.13.0.1.7.3.698084.8",
                        "value": "15826"
                    }
                ],
                "status": "finished",
                "class": {
                    "system": "urn:oid:1.2.840.114350.1.72.1.7.7.10.696784.13260",
                    "code": "13",
                    "display": "Support OP Encounter"
                },
                "type": [
                    {
                        "coding": [
                            {
                                "system": "urn:oid:1.2.840.114350.1.13.0.1.7.10.698084.30",
                                "code": "101",
                                "display": "Office Visit"
                            }
                        ],
                        "text": "Office Visit"
                    }
                ],
                "subject": {
                    "reference": "Patient/eAuxn-zddQFGu2MQjkde-mQ3",
                    "display": "Heart, Herman A"
                },
                "participant": [
                    {
                        "type": [
                            {
                                "text": "losAuthorizingPhysician"
                            }
                        ],
                        "individual": {
                            "reference": "Practitioner/emhilH6WzKBpangkpuWtgdQ3",
                            "type": "Practitioner",
                            "display": "Physician Phoenix, MD"
                        }
                    }
                ],
                "period": {
                    "start": "2014-06-27",
                    "end": "2014-06-27"
                },
                "reasonCode": [
                    {
                        "coding": [
                            {
                                "system": "urn:oid:1.2.840.114350.1.13.0.1.7.2.728286",
                                "code": "127",
                                "display": "Congestive Heart Failure"
                            }
                        ],
                        "text": "Congestive Heart Failure"
                    },
                    {
                        "coding": [
                            {
                                "system": "urn:oid:1.2.840.114350.1.13.0.1.7.2.728286",
                                "code": "182",
                                "display": "Hyperlipidemia"
                            }
                        ],
                        "text": "Hyperlipidemia"
                    }
                ],
                "location": [
                    {
                        "location": {
                            "reference": "Location/e4W4rmGe9QzuGm2Dy4NBqVc0KDe6yGld6HW95UuN-Qd03",
                            "display": "EMC Family Medicine"
                        }
                    }
                ]
            },
            "search": {
                "mode": "match"
            }
        },
        {
            "link": [
                {
                    "relation": "self",
                    "url": "https://appmarket.epic.com/interconnect-amcurprd-oauth/api/FHIR/R4/Encounter/eJmm.Nin-9hxpZ70lBQT8.Q3"
                }
            ],
            "fullUrl": "https://appmarket.epic.com/interconnect-amcurprd-oauth/api/FHIR/R4/Encounter/eJmm.Nin-9hxpZ70lBQT8.Q3",
            "resource": {
                "resourceType": "Encounter",
                "id": "eJmm.Nin-9hxpZ70lBQT8.Q3",
                "identifier": [
                    {
                        "use": "usual",
                        "system": "urn:oid:1.2.840.114350.1.13.0.1.7.3.698084.8",
                        "value": "19101"
                    }
                ],
                "status": "finished",
                "class": {
                    "system": "urn:oid:1.2.840.114350.1.72.1.7.7.10.696784.13260",
                    "code": "13",
                    "display": "Support OP Encounter"
                },
                "type": [
                    {
                        "coding": [
                            {
                                "system": "urn:oid:1.2.840.114350.1.13.0.1.7.10.698084.30",
                                "code": "97",
                                "display": "Committee Review"
                            }
                        ],
                        "text": "Committee Review"
                    }
                ],
                "subject": {
                    "reference": "Patient/eAuxn-zddQFGu2MQjkde-mQ3",
                    "display": "Heart, Herman A"
                },
                "episodeOfCare": [
                    {
                        "reference": "EpisodeOfCare/eWKxArmQ8M03D9qQlWlPfYw3",
                        "type": "EpisodeOfCare",
                        "display": "Heart Transplant Waitlist \u2013 Activated: 5/30/2014"
                    }
                ],
                "participant": [
                    {
                        "extension": [
                            {
                                "valueCodeableConcept": {
                                    "coding": [
                                        {
                                            "system": "urn:oid:1.2.840.114350.1.13.0.1.7.4.698084.18832",
                                            "code": "4",
                                            "display": "Cardiology"
                                        }
                                    ],
                                    "text": "Cardiology"
                                },
                                "url": "http://open.epic.com/FHIR/StructureDefinition/extension/specialty"
                            }
                        ],
                        "period": {
                            "start": "2014-05-30T20:35:22Z",
                            "end": "2014-05-30T20:44:04Z"
                        },
                        "individual": {
                            "reference": "Practitioner/ef9TegF2nfECi-0Skirbvpg3",
                            "type": "Practitioner",
                            "display": "Physician One Cardiology, MD"
                        }
                    },
                    {
                        "extension": [
                            {
                                "valueCodeableConcept": {
                                    "coding": [
                                        {
                                            "system": "urn:oid:1.2.840.114350.1.13.0.1.7.4.698084.18832",
                                            "code": "21",
                                            "display": "Nutrition"
                                        }
                                    ],
                                    "text": "Nutrition"
                                },
                                "url": "http://open.epic.com/FHIR/StructureDefinition/extension/specialty"
                            }
                        ],
                        "period": {
                            "start": "2014-05-30T20:35:22Z",
                            "end": "2014-05-30T20:44:04Z"
                        },
                        "individual": {
                            "reference": "Practitioner/eMrXAuxP1T8WDXTauxeih8A3",
                            "type": "Practitioner",
                            "display": "Nutrition Inpatient, RD"
                        }
                    },
                    {
                        "extension": [
                            {
                                "valueCodeableConcept": {
                                    "coding": [
                                        {
                                            "system": "urn:oid:1.2.840.114350.1.13.0.1.7.4.698084.18832",
                                            "code": "37",
                                            "display": "Psychiatry"
                                        }
                                    ],
                                    "text": "Psychiatry"
                                },
                                "url": "http://open.epic.com/FHIR/StructureDefinition/extension/specialty"
                            }
                        ],
                        "period": {
                            "start": "2014-05-30T20:35:22Z",
                            "end": "2014-05-30T20:44:04Z"
                        },
                        "individual": {
                            "reference": "Practitioner/erVI51faK4HiMDOnwELLxcA3",
                            "type": "Practitioner",
                            "display": "Physician Psychiatry, MD"
                        }
                    },
                    {
                        "extension": [
                            {
                                "valueCodeableConcept": {
                                    "coding": [
                                        {
                                            "system": "urn:oid:1.2.840.114350.1.13.0.1.7.4.698084.18832",
                                            "code": "38",
                                            "display": "Psychology"
                                        }
                                    ],
                                    "text": "Psychology"
                                },
                                "url": "http://open.epic.com/FHIR/StructureDefinition/extension/specialty"
                            }
                        ],
                        "period": {
                            "start": "2014-05-30T20:35:22Z",
                            "end": "2014-05-30T20:44:04Z"
                        },
                        "individual": {
                            "reference": "Practitioner/e6S0THxOPrGAM15rH9NZQjg3",
                            "type": "Practitioner",
                            "display": "Social Worker, LCSW"
                        }
                    },
                    {
                        "extension": [
                            {
                                "valueCodeableConcept": {
                                    "coding": [
                                        {
                                            "system": "urn:oid:1.2.840.114350.1.13.0.1.7.4.698084.18832",
                                            "code": "46",
                                            "display": "Cardiothoracic Surgery"
                                        }
                                    ],
                                    "text": "Cardiothoracic Surgery"
                                },
                                "url": "http://open.epic.com/FHIR/StructureDefinition/extension/specialty"
                            }
                        ],
                        "period": {
                            "start": "2014-05-30T20:35:22Z",
                            "end": "2014-05-30T20:44:04Z"
                        },
                        "individual": {
                            "reference": "Practitioner/e1E.doJCNaLCFW6.bPf-vTw3",
                            "type": "Practitioner",
                            "display": "Physician Cardiothoracic Surgery, MD"
                        }
                    },
                    {
                        "extension": [
                            {
                                "valueCodeableConcept": {
                                    "coding": [
                                        {
                                            "system": "urn:oid:1.2.840.114350.1.13.0.1.7.4.698084.18832",
                                            "code": "124",
                                            "display": "Pharmacy"
                                        }
                                    ],
                                    "text": "Pharmacy"
                                },
                                "url": "http://open.epic.com/FHIR/StructureDefinition/extension/specialty"
                            }
                        ],
                        "period": {
                            "start": "2014-05-30T20:35:22Z",
                            "end": "2014-05-30T20:44:04Z"
                        },
                        "individual": {
                            "reference": "Practitioner/eTqJMfUFpdZx2nCjgBuc5HA3",
                            "type": "Practitioner",
                            "display": "Pharmacist Willow Ambulatory, RPh"
                        }
                    },
                    {
                        "extension": [
                            {
                                "valueCodeableConcept": {
                                    "coding": [
                                        {
                                            "system": "urn:oid:1.2.840.114350.1.13.0.1.7.4.698084.18832",
                                            "code": "136",
                                            "display": "Transplant"
                                        }
                                    ],
                                    "text": "Transplant"
                                },
                                "url": "http://open.epic.com/FHIR/StructureDefinition/extension/specialty"
                            }
                        ],
                        "period": {
                            "start": "2014-05-30T20:35:22Z",
                            "end": "2014-05-30T20:44:04Z"
                        },
                        "individual": {
                            "reference": "Practitioner/e4fBRdwCD6bWDI76z9Bn9WA3",
                            "type": "Practitioner",
                            "display": "Coordinator Phoenix, RN"
                        }
                    },
                    {
                        "extension": [
                            {
                                "valueCodeableConcept": {
                                    "coding": [
                                        {
                                            "system": "urn:oid:1.2.840.114350.1.13.0.1.7.4.698084.18832",
                                            "code": "136",
                                            "display": "Transplant"
                                        }
                                    ],
                                    "text": "Transplant"
                                },
                                "url": "http://open.epic.com/FHIR/StructureDefinition/extension/specialty"
                            }
                        ],
                        "type": [
                            {
                                "text": "Chair"
                            }
                        ],
                        "period": {
                            "start": "2014-05-30T20:35:22Z",
                            "end": "2014-05-30T20:44:04Z"
                        },
                        "individual": {
                            "reference": "Practitioner/emhilH6WzKBpangkpuWtgdQ3",
                            "type": "Practitioner",
                            "display": "Physician Phoenix, MD"
                        }
                    },
                    {
                        "extension": [
                            {
                                "valueCodeableConcept": {
                                    "coding": [
                                        {
                                            "system": "urn:oid:1.2.840.114350.1.13.0.1.7.4.698084.18832",
                                            "code": "173",
                                            "display": "Transplant Surgery"
                                        }
                                    ],
                                    "text": "Transplant Surgery"
                                },
                                "url": "http://open.epic.com/FHIR/StructureDefinition/extension/specialty"
                            }
                        ],
                        "period": {
                            "start": "2014-05-30T20:35:22Z",
                            "end": "2014-05-30T20:44:04Z"
                        },
                        "individual": {
                            "reference": "Practitioner/elTUTFIGq8lDte.a-vdxy6g3",
                            "type": "Practitioner",
                            "display": "Surgeon Phoenix, MD"
                        }
                    },
                    {
                        "extension": [
                            {
                                "valueCodeableConcept": {
                                    "coding": [
                                        {
                                            "system": "urn:oid:1.2.840.114350.1.13.0.1.7.4.698084.18832",
                                            "code": "174",
                                            "display": "Finance"
                                        }
                                    ],
                                    "text": "Finance"
                                },
                                "url": "http://open.epic.com/FHIR/StructureDefinition/extension/specialty"
                            }
                        ],
                        "period": {
                            "start": "2014-05-30T20:35:22Z",
                            "end": "2014-05-30T20:44:04Z"
                        },
                        "individual": {
                            "reference": "Practitioner/eyV8vOOChpSZIOEXnM8hF3g3",
                            "type": "Practitioner",
                            "display": "Financial Coordinator Phoenix"
                        }
                    }
                ],
                "period": {
                    "start": "2014-05-30",
                    "end": "2014-05-30"
                },
                "location": [
                    {
                        "location": {
                            "reference": "Location/eTZ6583PWEaETks.nuluz02NygA.hvRNioKSnBwhm.DA3",
                            "display": "EMH Cardiothoracic Transplant"
                        }
                    }
                ]
            },
            "search": {
                "mode": "match"
            }
        },
        {
            "link": [
                {
                    "relation": "self",
                    "url": "https://appmarket.epic.com/interconnect-amcurprd-oauth/api/FHIR/R4/Encounter/e4JMbuBwVTRiM0zHbPdfJYg3"
                }
            ],
            "fullUrl": "https://appmarket.epic.com/interconnect-amcurprd-oauth/api/FHIR/R4/Encounter/e4JMbuBwVTRiM0zHbPdfJYg3",
            "resource": {
                "resourceType": "Encounter",
                "id": "e4JMbuBwVTRiM0zHbPdfJYg3",
                "identifier": [
                    {
                        "use": "usual",
                        "system": "urn:oid:1.2.840.114350.1.13.0.1.7.3.698084.8",
                        "value": "19098"
                    }
                ],
                "status": "finished",
                "class": {
                    "system": "urn:oid:1.2.840.114350.1.72.1.7.7.10.696784.13260",
                    "code": "13",
                    "display": "Support OP Encounter"
                },
                "type": [
                    {
                        "coding": [
                            {
                                "system": "urn:oid:1.2.840.114350.1.13.0.1.7.10.698084.30",
                                "code": "150",
                                "display": "Abstract"
                            }
                        ],
                        "text": "Abstract"
                    }
                ],
                "subject": {
                    "reference": "Patient/eAuxn-zddQFGu2MQjkde-mQ3",
                    "display": "Heart, Herman A"
                },
                "episodeOfCare": [
                    {
                        "reference": "EpisodeOfCare/eWKxArmQ8M03D9qQlWlPfYw3",
                        "type": "EpisodeOfCare",
                        "display": "Heart Transplant Waitlist \u2013 Activated: 5/30/2014"
                    }
                ],
                "period": {
                    "start": "2014-04-19",
                    "end": "2014-04-19"
                },
                "reasonCode": [
                    {
                        "coding": [
                            {
                                "system": "urn:oid:1.2.840.114350.1.13.0.1.7.2.728286",
                                "code": "2",
                                "display": "Abstract"
                            }
                        ],
                        "text": "Abstract"
                    }
                ],
                "location": [
                    {
                        "location": {
                            "reference": "Location/eTZ6583PWEaETks.nuluz02NygA.hvRNioKSnBwhm.DA3",
                            "display": "EMH Cardiothoracic Transplant"
                        }
                    }
                ]
            },
            "search": {
                "mode": "match"
            }
        },
        {
            "link": [
                {
                    "relation": "self",
                    "url": "https://appmarket.epic.com/interconnect-amcurprd-oauth/api/FHIR/R4/Encounter/ekqCR-Sy-gqxB47gvDJuK4w3"
                }
            ],
            "fullUrl": "https://appmarket.epic.com/interconnect-amcurprd-oauth/api/FHIR/R4/Encounter/ekqCR-Sy-gqxB47gvDJuK4w3",
            "resource": {
                "resourceType": "Encounter",
                "id": "ekqCR-Sy-gqxB47gvDJuK4w3",
                "identifier": [
                    {
                        "use": "usual",
                        "system": "urn:oid:1.2.840.114350.1.13.0.1.7.3.698084.8",
                        "value": "19097"
                    }
                ],
                "status": "finished",
                "class": {
                    "system": "urn:oid:1.2.840.114350.1.72.1.7.7.10.696784.13260",
                    "code": "13",
                    "display": "Support OP Encounter"
                },
                "type": [
                    {
                        "coding": [
                            {
                                "system": "urn:oid:1.2.840.114350.1.13.0.1.7.10.698084.30",
                                "code": "150",
                                "display": "Abstract"
                            }
                        ],
                        "text": "Abstract"
                    }
                ],
                "subject": {
                    "reference": "Patient/eAuxn-zddQFGu2MQjkde-mQ3",
                    "display": "Heart, Herman A"
                },
                "period": {
                    "start": "2014-04-19",
                    "end": "2014-04-19"
                },
                "location": [
                    {
                        "location": {
                            "reference": "Location/e.zUbzUZH9WErlJkdM0-hMZY7Z6JkVK.ftghaWm0ZCLs3",
                            "display": "EMH Abdominal Transplant"
                        }
                    }
                ]
            },
            "search": {
                "mode": "match"
            }
        },
        {
            "link": [
                {
                    "relation": "self",
                    "url": "https://appmarket.epic.com/interconnect-amcurprd-oauth/api/FHIR/R4/Encounter/emay9z91sRiUGs.A01G8uNQ3"
                }
            ],
            "fullUrl": "https://appmarket.epic.com/interconnect-amcurprd-oauth/api/FHIR/R4/Encounter/emay9z91sRiUGs.A01G8uNQ3",
            "resource": {
                "resourceType": "Encounter",
                "id": "emay9z91sRiUGs.A01G8uNQ3",
                "identifier": [
                    {
                        "use": "usual",
                        "system": "urn:oid:1.2.840.114350.1.13.0.1.7.3.698084.8",
                        "value": "19096"
                    }
                ],
                "status": "finished",
                "class": {
                    "system": "urn:oid:1.2.840.114350.1.72.1.7.7.10.696784.13260",
                    "code": "13",
                    "display": "Support OP Encounter"
                },
                "type": [
                    {
                        "coding": [
                            {
                                "system": "urn:oid:1.2.840.114350.1.13.0.1.7.10.698084.30",
                                "code": "70",
                                "display": "Telephone"
                            }
                        ],
                        "text": "Telephone"
                    }
                ],
                "subject": {
                    "reference": "Patient/eAuxn-zddQFGu2MQjkde-mQ3",
                    "display": "Heart, Herman A"
                },
                "episodeOfCare": [
                    {
                        "reference": "EpisodeOfCare/eWKxArmQ8M03D9qQlWlPfYw3",
                        "type": "EpisodeOfCare",
                        "display": "Heart Transplant Waitlist \u2013 Activated: 5/30/2014"
                    }
                ],
                "period": {
                    "start": "2014-03-18",
                    "end": "2014-03-18"
                },
                "reasonCode": [
                    {
                        "coding": [
                            {
                                "system": "urn:oid:1.2.840.114350.1.13.0.1.7.2.728286",
                                "code": "2050000016",
                                "display": "Referral - Heart Txp"
                            }
                        ],
                        "text": "Referral - Heart Txp"
                    }
                ],
                "location": [
                    {
                        "location": {
                            "reference": "Location/e.zUbzUZH9WErlJkdM0-hMZY7Z6JkVK.ftghaWm0ZCLs3",
                            "display": "EMH Abdominal Transplant"
                        }
                    }
                ]
            },
            "search": {
                "mode": "match"
            }
        },
        {
            "link": [
                {
                    "relation": "self",
                    "url": "https://appmarket.epic.com/interconnect-amcurprd-oauth/api/FHIR/R4/Encounter/egxEG1LSjDaPVhnu7O-H.pw3"
                }
            ],
            "fullUrl": "https://appmarket.epic.com/interconnect-amcurprd-oauth/api/FHIR/R4/Encounter/egxEG1LSjDaPVhnu7O-H.pw3",
            "resource": {
                "resourceType": "Encounter",
                "id": "egxEG1LSjDaPVhnu7O-H.pw3",
                "identifier": [
                    {
                        "use": "usual",
                        "system": "urn:oid:1.2.840.114350.1.13.0.1.7.3.698084.8",
                        "value": "19094"
                    }
                ],
                "status": "finished",
                "class": {
                    "system": "urn:oid:1.2.840.114350.1.72.1.7.7.10.696784.13260",
                    "code": "13",
                    "display": "Support OP Encounter"
                },
                "type": [
                    {
                        "coding": [
                            {
                                "system": "urn:oid:1.2.840.114350.1.13.0.1.7.10.698084.30",
                                "code": "101",
                                "display": "Office Visit"
                            }
                        ],
                        "text": "Office Visit"
                    }
                ],
                "subject": {
                    "reference": "Patient/eAuxn-zddQFGu2MQjkde-mQ3",
                    "display": "Heart, Herman A"
                },
                "participant": [
                    {
                        "type": [
                            {
                                "text": "losAuthorizingPhysician"
                            }
                        ],
                        "individual": {
                            "reference": "Practitioner/emhilH6WzKBpangkpuWtgdQ3",
                            "type": "Practitioner",
                            "display": "Physician Phoenix, MD"
                        }
                    }
                ],
                "period": {
                    "start": "2013-11-06",
                    "end": "2013-11-06"
                },
                "reasonCode": [
                    {
                        "coding": [
                            {
                                "system": "urn:oid:1.2.840.114350.1.13.0.1.7.2.728286",
                                "code": "160302",
                                "display": "Hypertension"
                            }
                        ],
                        "text": "Hypertension"
                    },
                    {
                        "coding": [
                            {
                                "system": "urn:oid:1.2.840.114350.1.13.0.1.7.2.728286",
                                "code": "182",
                                "display": "Hyperlipidemia"
                            }
                        ],
                        "text": "Hyperlipidemia"
                    },
                    {
                        "coding": [
                            {
                                "system": "urn:oid:1.2.840.114350.1.13.0.1.7.2.728286",
                                "code": "127",
                                "display": "Congestive Heart Failure"
                            }
                        ],
                        "text": "Congestive Heart Failure"
                    }
                ],
                "location": [
                    {
                        "location": {
                            "reference": "Location/e4W4rmGe9QzuGm2Dy4NBqVc0KDe6yGld6HW95UuN-Qd03",
                            "display": "EMC Family Medicine"
                        }
                    }
                ]
            },
            "search": {
                "mode": "match"
            }
        },
        {
            "link": [
                {
                    "relation": "self",
                    "url": "https://appmarket.epic.com/interconnect-amcurprd-oauth/api/FHIR/R4/Encounter/e3JFG.Q0qdiJCE4VOIczcvw3"
                }
            ],
            "fullUrl": "https://appmarket.epic.com/interconnect-amcurprd-oauth/api/FHIR/R4/Encounter/e3JFG.Q0qdiJCE4VOIczcvw3",
            "resource": {
                "resourceType": "Encounter",
                "id": "e3JFG.Q0qdiJCE4VOIczcvw3",
                "identifier": [
                    {
                        "use": "usual",
                        "system": "urn:oid:1.2.840.114350.1.13.0.1.7.3.698084.8",
                        "value": "19092"
                    }
                ],
                "status": "finished",
                "class": {
                    "system": "urn:oid:1.2.840.114350.1.72.1.7.7.10.696784.13260",
                    "code": "13",
                    "display": "Support OP Encounter"
                },
                "type": [
                    {
                        "coding": [
                            {
                                "system": "urn:oid:1.2.840.114350.1.13.0.1.7.10.698084.30",
                                "code": "101",
                                "display": "Office Visit"
                            }
                        ],
                        "text": "Office Visit"
                    }
                ],
                "subject": {
                    "reference": "Patient/eAuxn-zddQFGu2MQjkde-mQ3",
                    "display": "Heart, Herman A"
                },
                "participant": [
                    {
                        "type": [
                            {
                                "text": "losAuthorizingPhysician"
                            }
                        ],
                        "individual": {
                            "reference": "Practitioner/emhilH6WzKBpangkpuWtgdQ3",
                            "type": "Practitioner",
                            "display": "Physician Phoenix, MD"
                        }
                    }
                ],
                "period": {
                    "start": "2013-09-04",
                    "end": "2013-09-04"
                },
                "reasonCode": [
                    {
                        "coding": [
                            {
                                "system": "urn:oid:1.2.840.114350.1.13.0.1.7.2.728286",
                                "code": "127",
                                "display": "Congestive Heart Failure"
                            }
                        ],
                        "text": "Congestive Heart Failure"
                    },
                    {
                        "coding": [
                            {
                                "system": "urn:oid:1.2.840.114350.1.13.0.1.7.2.728286",
                                "code": "182",
                                "display": "Hyperlipidemia"
                            }
                        ],
                        "text": "Hyperlipidemia"
                    }
                ],
                "location": [
                    {
                        "location": {
                            "reference": "Location/e4W4rmGe9QzuGm2Dy4NBqVc0KDe6yGld6HW95UuN-Qd03",
                            "display": "EMC Family Medicine"
                        }
                    }
                ]
            },
            "search": {
                "mode": "match"
            }
        },
        {
            "link": [
                {
                    "relation": "self",
                    "url": "https://appmarket.epic.com/interconnect-amcurprd-oauth/api/FHIR/R4/Encounter/eQ4OixgUbmHj60gDgqUv9lQ3"
                }
            ],
            "fullUrl": "https://appmarket.epic.com/interconnect-amcurprd-oauth/api/FHIR/R4/Encounter/eQ4OixgUbmHj60gDgqUv9lQ3",
            "resource": {
                "resourceType": "Encounter",
                "id": "eQ4OixgUbmHj60gDgqUv9lQ3",
                "identifier": [
                    {
                        "use": "usual",
                        "system": "urn:oid:1.2.840.114350.1.13.0.1.7.3.698084.8",
                        "value": "19090"
                    }
                ],
                "status": "finished",
                "class": {
                    "system": "urn:oid:1.2.840.114350.1.72.1.7.7.10.696784.13260",
                    "code": "13",
                    "display": "Support OP Encounter"
                },
                "type": [
                    {
                        "coding": [
                            {
                                "system": "urn:oid:1.2.840.114350.1.13.0.1.7.10.698084.30",
                                "code": "101",
                                "display": "Office Visit"
                            }
                        ],
                        "text": "Office Visit"
                    }
                ],
                "subject": {
                    "reference": "Patient/eAuxn-zddQFGu2MQjkde-mQ3",
                    "display": "Heart, Herman A"
                },
                "participant": [
                    {
                        "type": [
                            {
                                "text": "losAuthorizingPhysician"
                            }
                        ],
                        "individual": {
                            "reference": "Practitioner/emhilH6WzKBpangkpuWtgdQ3",
                            "type": "Practitioner",
                            "display": "Physician Phoenix, MD"
                        }
                    }
                ],
                "period": {
                    "start": "2013-03-06",
                    "end": "2013-03-06"
                },
                "reasonCode": [
                    {
                        "coding": [
                            {
                                "system": "urn:oid:1.2.840.114350.1.13.0.1.7.2.728286",
                                "code": "127",
                                "display": "Congestive Heart Failure"
                            }
                        ],
                        "text": "Congestive Heart Failure"
                    },
                    {
                        "coding": [
                            {
                                "system": "urn:oid:1.2.840.114350.1.13.0.1.7.2.728286",
                                "code": "182",
                                "display": "Hyperlipidemia"
                            }
                        ],
                        "text": "Hyperlipidemia"
                    }
                ],
                "location": [
                    {
                        "location": {
                            "reference": "Location/e4W4rmGe9QzuGm2Dy4NBqVc0KDe6yGld6HW95UuN-Qd03",
                            "display": "EMC Family Medicine"
                        }
                    }
                ]
            },
            "search": {
                "mode": "match"
            }
        },
        {
            "link": [
                {
                    "relation": "self",
                    "url": "https://appmarket.epic.com/interconnect-amcurprd-oauth/api/FHIR/R4/Patient/eAuxn-zddQFGu2MQjkde-mQ3"
                }
            ],
            "fullUrl": "https://appmarket.epic.com/interconnect-amcurprd-oauth/api/FHIR/R4/Patient/eAuxn-zddQFGu2MQjkde-mQ3",
            "resource": {
                "resourceType": "Patient",
                "id": "eAuxn-zddQFGu2MQjkde-mQ3",
                "extension": [
                    {
                        "extension": [
                            {
                                "valueCoding": {
                                    "system": "urn:oid:2.16.840.1.113883.6.238",
                                    "code": "2106-3",
                                    "display": "White"
                                },
                                "url": "ombCategory"
                            },
                            {
                                "valueString": "White",
                                "url": "text"
                            }
                        ],
                        "url": "http://hl7.org/fhir/us/core/StructureDefinition/us-core-race"
                    },
                    {
                        "extension": [
                            {
                                "valueCoding": {
                                    "system": "urn:oid:2.16.840.1.113883.6.238",
                                    "code": "2186-5",
                                    "display": "Not Hispanic or Latino"
                                },
                                "url": "ombCategory"
                            },
                            {
                                "valueString": "Not Hispanic or Latino",
                                "url": "text"
                            }
                        ],
                        "url": "http://hl7.org/fhir/us/core/StructureDefinition/us-core-ethnicity"
                    },
                    {
                        "valueCodeableConcept": {
                            "coding": [
                                {
                                    "system": "urn:oid:1.2.840.114350.1.13.0.1.7.10.698084.130.657370.19999000",
                                    "code": "male",
                                    "display": "male"
                                }
                            ]
                        },
                        "url": "http://open.epic.com/FHIR/StructureDefinition/extension/legal-sex"
                    },
                    {
                        "valueCodeableConcept": {
                            "coding": [
                                {
                                    "system": "urn:oid:1.2.840.114350.1.13.0.1.7.10.698084.130.657370.19999000",
                                    "code": "male",
                                    "display": "male"
                                }
                            ]
                        },
                        "url": "http://open.epic.com/FHIR/StructureDefinition/extension/sex-for-clinical-use"
                    },
                    {
                        "valueCode": "M",
                        "url": "http://hl7.org/fhir/us/core/StructureDefinition/us-core-birthsex"
                    }
                ],
                "identifier": [
                    {
                        "use": "usual",
                        "system": "urn:oid:2.16.840.1.113883.4.1",
                        "value": "581-12-1599"
                    },
                    {
                        "use": "usual",
                        "type": {
                            "text": "CEID"
                        },
                        "system": "urn:epic:apporchard.curprod",
                        "value": "AO122DM1PLVKZJF"
                    },
                    {
                        "use": "usual",
                        "type": {
                            "text": "EPIC"
                        },
                        "system": "urn:oid:1.2.840.114350.1.1",
                        "value": "E3669"
                    },
                    {
                        "use": "usual",
                        "type": {
                            "text": "EXTERNAL"
                        },
                        "system": "urn:oid:1.2.840.114350.1.13.0.1.7.2.698084",
                        "value": "Z5526"
                    },
                    {
                        "use": "usual",
                        "type": {
                            "text": "FHIR"
                        },
                        "system": "http://open.epic.com/FHIR/StructureDefinition/patient-dstu2-fhir-id",
                        "value": "Twm8ymrWRoY5FYX730dsZGFQxzMnRl-mLP4TvCC-CkEMB"
                    },
                    {
                        "use": "usual",
                        "type": {
                            "text": "FHIR STU3"
                        },
                        "system": "http://open.epic.com/FHIR/StructureDefinition/patient-fhir-id",
                        "value": "eAuxn-zddQFGu2MQjkde-mQ3"
                    },
                    {
                        "use": "usual",
                        "type": {
                            "text": "INTERNAL"
                        },
                        "system": "urn:oid:1.2.840.114350.1.13.0.1.7.2.698084",
                        "value": "     Z5526"
                    },
                    {
                        "use": "usual",
                        "type": {
                            "text": "MRN"
                        },
                        "system": "urn:oid:1.2.840.114350.1.13.0.1.7.5.737384.14",
                        "value": "203424"
                    },
                    {
                        "use": "usual",
                        "type": {
                            "text": "MYCHARTLOGIN"
                        },
                        "system": "urn:oid:1.2.840.114350.1.13.0.1.7.3.878082.110",
                        "value": "HEARTHERMANA"
                    },
                    {
                        "use": "usual",
                        "type": {
                            "text": "WPRINTERNAL"
                        },
                        "system": "urn:oid:1.2.840.114350.1.13.0.1.7.2.878082",
                        "value": "211"
                    }
                ],
                "active": true,
                "name": [
                    {
                        "use": "old",
                        "text": "HEART,HERMAN A",
                        "family": "Heart",
                        "given": [
                            "Herman",
                            "A"
                        ]
                    },
                    {
                        "use": "old",
                        "text": "HEART,HERMAN TXPA",
                        "family": "Heart",
                        "given": [
                            "Herman",
                            "Txpa"
                        ]
                    },
                    {
                        "use": "official",
                        "text": "Herman A Heart",
                        "family": "Heart",
                        "given": [
                            "Herman",
                            "A"
                        ]
                    },
                    {
                        "use": "usual",
                        "text": "Herman A Heart",
                        "family": "Heart",
                        "given": [
                            "Herman",
                            "A"
                        ]
                    }
                ],
                "telecom": [
                    {
                        "system": "phone",
                        "value": "555-555-5555",
                        "use": "home"
                    }
                ],
                "gender": "male",
                "birthDate": "1976-03-06",
                "deceasedBoolean": false,
                "address": [
                    {
                        "use": "home",
                        "line": [
                            "1979 Milky Way"
                        ],
                        "city": "MADISON",
                        "district": "DANE",
                        "state": "WI",
                        "postalCode": "53711",
                        "country": "US"
                    }
                ],
                "maritalStatus": {
                    "text": "Single"
                },
                "contact": [
                    {
                        "relationship": [
                            {
                                "coding": [
                                    {
                                        "system": "http://terminology.hl7.org/CodeSystem/v2-0131",
                                        "code": "C",
                                        "display": "Emergency Contact"
                                    },
                                    {
                                        "system": "http://terminology.hl7.org/CodeSystem/v2-0131",
                                        "code": "N",
                                        "display": "Next-of-Kin"
                                    },
                                    {
                                        "system": "urn:oid:1.2.840.114350.1.13.0.1.7.4.827665.1000",
                                        "code": "3",
                                        "display": "Father"
                                    }
                                ],
                                "text": "Father"
                            }
                        ],
                        "name": {
                            "use": "usual",
                            "text": "Heart,Jim A"
                        },
                        "telecom": [
                            {
                                "system": "phone",
                                "value": "555-555-5555",
                                "use": "home"
                            },
                            {
                                "system": "phone",
                                "value": "555-555-5555",
                                "use": "work"
                            }
                        ],
                        "address": {
                            "use": "home",
                            "line": [
                                "1979 Milky Way"
                            ],
                            "city": "MADISON",
                            "district": "DANE",
                            "state": "WI",
                            "postalCode": "53711",
                            "country": "US"
                        }
                    },
                    {
                        "relationship": [
                            {
                                "coding": [
                                    {
                                        "system": "http://terminology.hl7.org/CodeSystem/v2-0131",
                                        "code": "C",
                                        "display": "Emergency Contact"
                                    },
                                    {
                                        "system": "http://terminology.hl7.org/CodeSystem/v2-0131",
                                        "code": "N",
                                        "display": "Next-of-Kin"
                                    },
                                    {
                                        "system": "urn:oid:1.2.840.114350.1.13.0.1.7.4.827665.1000",
                                        "code": "3",
                                        "display": "Father"
                                    }
                                ],
                                "text": "Father"
                            }
                        ],
                        "name": {
                            "use": "usual",
                            "text": "Heart,Jim A"
                        },
                        "telecom": [
                            {
                                "system": "phone",
                                "value": "555-555-5555",
                                "use": "home"
                            },
                            {
                                "system": "phone",
                                "value": "608-271-9000",
                                "use": "work"
                            }
                        ],
                        "address": {
                            "use": "home",
                            "line": [
                                "1979 Milky Way"
                            ],
                            "city": "MADISON",
                            "district": "DANE",
                            "state": "WI",
                            "postalCode": "53711",
                            "country": "US"
                        }
                    }
                ],
                "communication": [
                    {
                        "language": {
                            "coding": [
                                {
                                    "system": "urn:ietf:bcp:47",
                                    "code": "en",
                                    "display": "English"
                                }
                            ],
                            "text": "English"
                        },
                        "preferred": true
                    }
                ],
                "managingOrganization": {
                    "reference": "Organization/enRyWnSP963FYDpoks4NHOA3",
                    "display": "Epic Hospital System"
                },
                "link": [
                    {
                        "extension": [
                            {
                                "valueInstant": "2015-10-02T18:06:39Z",
                                "url": "https://open.epic.com/FHIR/StructureDefinition/patient-merge-unmerge-instant"
                            }
                        ],
                        "other": {
                            "reference": "Patient/ebsVQQ1Bjsb50ImDVCg6sXQ3"
                        },
                        "type": "replaces"
                    }
                ]
            },
            "search": {
                "mode": "include"
            }
        },
        {
            "link": [
                {
                    "relation": "self",
                    "url": "https://appmarket.epic.com/interconnect-amcurprd-oauth/api/FHIR/R4/EpisodeOfCare/eWKxArmQ8M03D9qQlWlPfYw3"
                }
            ],
            "fullUrl": "https://appmarket.epic.com/interconnect-amcurprd-oauth/api/FHIR/R4/EpisodeOfCare/eWKxArmQ8M03D9qQlWlPfYw3",
            "resource": {
                "resourceType": "EpisodeOfCare",
                "id": "eWKxArmQ8M03D9qQlWlPfYw3",
                "extension": [
                    {
                        "valueString": "Heart Transplant Waitlist \u2013 Activated: 5/30/2014",
                        "url": "http://open.epic.com/FHIR/StructureDefinition/extension/episode-name"
                    },
                    {
                        "valueCodeableConcept": {
                            "coding": [
                                {
                                    "system": "urn:oid:1.2.840.114350.1.72.1.7.7.10.728366.30035",
                                    "code": "2",
                                    "display": "Recipient"
                                }
                            ],
                            "text": "Recipient"
                        },
                        "url": "http://open.epic.com/FHIR/StructureDefinition/extension/transplant-donor-or-recipient"
                    },
                    {
                        "extension": [
                            {
                                "valueCodeableConcept": {
                                    "coding": [
                                        {
                                            "system": "urn:oid:1.2.840.114350.1.72.1.7.7.10.728366.30030",
                                            "code": "64",
                                            "display": "Heart"
                                        }
                                    ],
                                    "text": "Heart"
                                },
                                "url": "organ-class"
                            },
                            {
                                "valueReference": {
                                    "reference": "Practitioner/e4fBRdwCD6bWDI76z9Bn9WA3",
                                    "type": "Practitioner",
                                    "display": "Coordinator Phoenix, RN"
                                },
                                "url": "coordinator"
                            }
                        ],
                        "url": "http://open.epic.com/FHIR/StructureDefinition/extension/transplant-organ-coordinator"
                    },
                    {
                        "extension": [
                            {
                                "valueCodeableConcept": {
                                    "coding": [
                                        {
                                            "system": "urn:oid:1.2.840.114350.1.72.1.7.7.10.728366.30105",
                                            "code": "30",
                                            "display": "Waitlist"
                                        }
                                    ],
                                    "text": "Waitlist"
                                },
                                "url": "phase"
                            },
                            {
                                "valueString": "Active",
                                "url": "status"
                            },
                            {
                                "valueDate": "2014-05-30",
                                "url": "effective"
                            }
                        ],
                        "url": "http://open.epic.com/FHIR/StructureDefinition/extension/transplant-phase-status"
                    },
                    {
                        "valueDate": "2014-03-18",
                        "url": "http://open.epic.com/FHIR/StructureDefinition/extension/transplant-event-referral-date"
                    },
                    {
                        "valuePeriod": {
                            "start": "2014-05-25",
                            "end": "2014-05-30"
                        },
                        "url": "http://open.epic.com/FHIR/StructureDefinition/extension/transplant-event-evaluation"
                    },
                    {
                        "valueDate": "2014-06-01",
                        "url": "http://open.epic.com/FHIR/StructureDefinition/extension/transplant-event-committee-review-date"
                    },
                    {
                        "valueDate": "2014-05-30",
                        "url": "http://open.epic.com/FHIR/StructureDefinition/extension/transplant-event-center-waitlist-date"
                    },
                    {
                        "valueDate": "2014-05-30",
                        "url": "http://open.epic.com/FHIR/StructureDefinition/extension/transplant-event-waitlist-date"
                    },
                    {
                        "valueString": "University of Wisconsin Hospital and Clinics (Madison, WI)",
                        "url": "http://open.epic.com/FHIR/StructureDefinition/extension/transplant-center"
                    }
                ],
                "status": "active",
                "type": [
                    {
                        "coding": [
                            {
                                "system": "urn:oid:1.2.840.114350.1.13.0.1.7.2.726668",
                                "code": "49",
                                "display": "Transplant"
                            },
                            {
                                "system": "urn:oid:1.2.840.114350.1.13.0.1.7.4.726668.130",
                                "code": "4",
                                "display": "Transplant"
                            }
                        ],
                        "text": "Transplant"
                    }
                ],
                "patient": {
                    "reference": "Patient/eAuxn-zddQFGu2MQjkde-mQ3",
                    "type": "Patient",
                    "display": "Heart, Herman A"
                },
                "period": {
                    "start": "2014-03-18"
                },
                "team": [
                    {
                        "reference": "CareTeam/eqzOZBHt0C6lzBZ065tc5kQuUqBtqqq4d3fUkQbAXBTA3",
                        "type": "CareTeam"
                    }
                ]
            },
            "search": {
                "mode": "include"
            }
        }
    ]
}