{
    "resourceType": "Bundle",
    "type": "searchset",
    "total": 37,
    "link": [
        {
            "relation": "self",
            "url": "https://appmarket.epic.com/interconnect-amcurprd-oauth/api/FHIR/R4/Encounter?_include=Encounter:condition&_include=Encounter:episodeOfCare&_include=Encounter:partOf&_include=Encounter:subject&_format=json&patient=e9Bi2yhKnvFU8rsjpJpPMCw3"
        }
    ],
    "entry": [
        {
            "link": [
                {
                    "relation": "self",
                    "url": "https://appmarket.epic.com/interconnect-amcurprd-oauth/api/FHIR/R4/Encounter/e3NLUrwd4qYCL780lWaw5Tw3"
                }
            ],
            "fullUrl": "https://appmarket.epic.com/interconnect-amcurprd-oauth/api/FHIR/R4/Encounter/e3NLUrwd4qYCL780lWaw5Tw3",
            "resource": {
                "resourceType": "Encounter",
                "id": "e3NLUrwd4qYCL780lWaw5Tw3",
                "identifier": [
                    {
                        "use": "usual",
                        "system": "urn:oid:1.2.840.114350.1.13.0.1.7.3.698084.8",
                        "value": "26596"
                    }
                ],
                "status": "unknown",
                "class": {
                    "system": "urn:oid:1.2.840.114350.1.72.1.7.7.10.696784.13260",
                    "code": "13",
                    "display": "Support OP Encounter"
                },
                "type": [
                    {
                        "coding": [
                            {
                                "system": "urn:oid:1.2.840.114350.1.13.0.1.7.10.698084.30",
                                "code": "40",
                                "display": "Wait List"
                            }
                        ],
                        "text": "Wait List"
                    }
                ],
                "subject": {
                    "reference": "Patient/e9Bi2yhKnvFU8rsjpJpPMCw3",
                    "display": "Radiant, Alison"
                },
                "period": {
                    "start": "2018-01-04",
                    "end": "2018-01-04"
                },
                "location": [
                    {
                        "location": {
                            "reference": "Location/ed11n4-i8oztrjpHIELXPbcvQ0XhK7Rf0YuVpyGAIoPo3",
                            "display": "EMC Breast Imaging"
                        }
                    }
                ]
            },
            "search": {
                "mode": "match"
            }
        },
        {
            "link": [
                {
                    "relation": "self",
                    "url": "https://appmarket.epic.com/interconnect-amcurprd-oauth/api/FHIR/R4/Encounter/e36foPw8ClgFTAItKbPpnAw3"
                }
            ],
            "fullUrl": "https://appmarket.epic.com/interconnect-amcurprd-oauth/api/FHIR/R4/Encounter/e36foPw8ClgFTAItKbPpnAw3",
            "resource": {
                "resourceType": "Encounter",
                "id": "e36foPw8ClgFTAItKbPpnAw3",
                "identifier": [
                    {
                        "use": "usual",
                        "system": "urn:oid:1.2.840.114350.1.13.0.1.7.3.698084.8",
                        "value": "26597"
                    }
                ],
                "status": "finished",
                "class": {
                    "system": "urn:oid:1.2.840.114350.1.72.1.7.7.10.696784.13260",
                    "code": "5",
                    "display": "Appointment"
                },
                "type": [
                    {
                        "coding": [
                            {
                                "system": "urn:oid:1.2.840.114350.1.13.0.1.7.10.698084.30",
                                "code": "50",
                                "display": "Appointment"
                            }
                        ],
                        "text": "Appointment"
                    },
                    {
                        "coding": [
                            {
                                "system": "urn:oid:1.2.840.114350.1.13.0.1.7.2.808267",
                                "code": "1050605",
                                "display": "Breast Imaging Screening Bilateral"
                            }
                        ],
                        "text": "Breast Imaging Screening Bilateral"
                    }
                ],
                "subject": {
                    "reference": "Patient/e9Bi2yhKnvFU8rsjpJpPMCw3",
                    "display": "Radiant, Alison"
                },
                "participant": [
                    {
                        "type": [
                            {
                                "coding": [
                                    {
                                        "system": "http://hl7.org/fhir/v3/ParticipationType",
                                        "code": "REF",
                                        "display": "referrer"
                                    }
                                ],
                                "text": "referrer"
                            }
                        ],
                        "individual": {
                            "reference": "Practitioner/eM5CWtq15N0WJeuCet5bJlQ3",
                            "type": "Practitioner",
                            "display": "Physician Family Medicine, MD"
                        }
                    },
                    {
                        "period": {
                            "start": "2016-11-04T18:00:00Z",
                            "end": "2016-11-04T18:15:00Z"
                        },
                        "individual": {
                            "display": "EMC MAMMO"
                        }
                    }
                ],
                "period": {
                    "start": "2016-11-04T18:00:00Z",
                    "end": "2016-11-04T18:15:00Z"
                },
                "location": [
                    {
                        "location": {
                            "reference": "Location/ed11n4-i8oztrjpHIELXPbcvQ0XhK7Rf0YuVpyGAIoPo3",
                            "display": "EMC Breast Imaging"
                        }
                    }
                ]
            },
            "search": {
                "mode": "match"
            }
        },
        {
            "link": [
                {
                    "relation": "self",
                    "url": "https://appmarket.epic.com/interconnect-amcurprd-oauth/api/FHIR/R4/Encounter/ePfSeqW7d.ajmoM3K2XPLcg3"
                }
            ],
            "fullUrl": "https://appmarket.epic.com/interconnect-amcurprd-oauth/api/FHIR/R4/Encounter/ePfSeqW7d.ajmoM3K2XPLcg3",
            "resource": {
                "resourceType": "Encounter",
                "id": "ePfSeqW7d.ajmoM3K2XPLcg3",
                "identifier": [
                    {
                        "use": "usual",
                        "system": "urn:oid:1.2.840.114350.1.13.0.1.7.3.698084.8",
                        "value": "26595"
                    }
                ],
                "status": "in-progress",
                "class": {
                    "system": "urn:oid:1.2.840.114350.1.72.1.7.7.10.696784.13260",
                    "code": "13",
                    "display": "Support OP Encounter"
                },
                "type": [
                    {
                        "coding": [
                            {
                                "system": "urn:oid:1.2.840.114350.1.13.0.1.7.10.698084.30",
                                "code": "117",
                                "display": "Ancillary Orders"
                            }
                        ],
                        "text": "Ancillary Orders"
                    }
                ],
                "subject": {
                    "reference": "Patient/e9Bi2yhKnvFU8rsjpJpPMCw3",
                    "display": "Radiant, Alison"
                },
                "period": {
                    "start": "2016-11-04",
                    "end": "2016-11-04"
                },
                "location": [
                    {
                        "location": {
                            "reference": "Location/ed11n4-i8oztrjpHIELXPbcvQ0XhK7Rf0YuVpyGAIoPo3",
                            "display": "EMC Breast Imaging"
                        }
                    }
                ]
            },
            "search": {
                "mode": "match"
            }
        },
        {
            "link": [
                {
                    "relation": "self",
                    "url": "https://appmarket.epic.com/interconnect-amcurprd-oauth/api/FHIR/R4/Encounter/eKIeDeuxtZ3oyp3VyVHdLjA3"
                }
            ],
            "fullUrl": "https://appmarket.epic.com/interconnect-amcurprd-oauth/api/FHIR/R4/Encounter/eKIeDeuxtZ3oyp3VyVHdLjA3",
            "resource": {
                "resourceType": "Encounter",
                "id": "eKIeDeuxtZ3oyp3VyVHdLjA3",
                "identifier": [
                    {
                        "use": "usual",
                        "system": "urn:oid:1.2.840.114350.1.13.0.1.7.3.698084.8",
                        "value": "26592"
                    }
                ],
                "status": "finished",
                "class": {
                    "system": "urn:oid:1.2.840.114350.1.72.1.7.7.10.696784.13260",
                    "code": "13",
                    "display": "Support OP Encounter"
                },
                "type": [
                    {
                        "coding": [
                            {
                                "system": "urn:oid:1.2.840.114350.1.13.0.1.7.10.698084.30",
                                "code": "111",
                                "display": "Orders Only"
                            }
                        ],
                        "text": "Orders Only"
                    }
                ],
                "subject": {
                    "reference": "Patient/e9Bi2yhKnvFU8rsjpJpPMCw3",
                    "display": "Radiant, Alison"
                },
                "period": {
                    "start": "2016-10-31",
                    "end": "2016-10-31"
                },
                "location": [
                    {
                        "location": {
                            "reference": "Location/e6.GHPEJ3Jrk18e14wi2AJ5vFRqvLa0ZB6qH40N4UgB03",
                            "display": "EMH X-Ray Imaging"
                        }
                    }
                ]
            },
            "search": {
                "mode": "match"
            }
        },
        {
            "link": [
                {
                    "relation": "self",
                    "url": "https://appmarket.epic.com/interconnect-amcurprd-oauth/api/FHIR/R4/Encounter/eCY-WFByM4H.7FxXdrFggFg3"
                }
            ],
            "fullUrl": "https://appmarket.epic.com/interconnect-amcurprd-oauth/api/FHIR/R4/Encounter/eCY-WFByM4H.7FxXdrFggFg3",
            "resource": {
                "resourceType": "Encounter",
                "id": "eCY-WFByM4H.7FxXdrFggFg3",
                "identifier": [
                    {
                        "use": "usual",
                        "system": "urn:oid:1.2.840.114350.1.13.0.1.7.3.698084.8",
                        "value": "25702"
                    }
                ],
                "status": "in-progress",
                "class": {
                    "system": "urn:oid:1.2.840.114350.1.72.1.7.7.10.696784.13260",
                    "code": "4",
                    "display": "HOV"
                },
                "type": [
                    {
                        "coding": [
                            {
                                "system": "urn:oid:1.2.840.114350.1.13.0.1.7.10.698084.10110",
                                "code": "102",
                                "display": "Outpatient"
                            }
                        ],
                        "text": "Outpatient"
                    },
                    {
                        "coding": [
                            {
                                "system": "urn:oid:1.2.840.114350.1.13.0.1.7.10.698084.30",
                                "code": "3",
                                "display": "Hospital Encounter"
                            }
                        ],
                        "text": "Hospital Encounter"
                    },
                    {
                        "coding": [
                            {
                                "system": "urn:oid:1.2.840.114350.1.13.0.1.7.2.808267",
                                "code": "1050321",
                                "display": "MRI Abdomen with & without Contrast"
                            }
                        ],
                        "text": "MRI Abdomen with & without Contrast"
                    }
                ],
                "subject": {
                    "reference": "Patient/e9Bi2yhKnvFU8rsjpJpPMCw3",
                    "display": "Radiant, Alison"
                },
                "participant": [
                    {
                        "type": [
                            {
                                "coding": [
                                    {
                                        "system": "http://hl7.org/fhir/v3/ParticipationType",
                                        "code": "REF",
                                        "display": "referrer"
                                    }
                                ],
                                "text": "referrer"
                            }
                        ],
                        "individual": {
                            "reference": "Practitioner/eM5CWtq15N0WJeuCet5bJlQ3",
                            "type": "Practitioner",
                            "display": "Physician Family Medicine, MD"
                        }
                    },
                    {
                        "period": {
                            "start": "2016-07-28T19:00:00Z",
                            "end": "2016-07-28T19:45:00Z"
                        },
                        "individual": {
                            "display": "EMH MRI 1"
                        }
                    }
                ],
                "period": {
                    "start": "2016-07-28T18:47:53Z"
                },
                "account": [
                    {
                        "identifier": {
                            "system": "urn:oid:1.2.840.114350.1.13.0.1.7.2.726582",
                            "value": "1000393"
                        },
                        "display": "RADIANT,ALISON"
                    }
                ],
                "hospitalization": {
                    "extension": [
                        {
                            "valueDateTime": "2016-07-28T18:47:53Z",
                            "url": "http://open.epic.com/FHIR/StructureDefinition/extension/observation-datetime"
                        }
                    ]
                },
                "location": [
                    {
                        "location": {
                            "reference": "Location/eHCWC7LIQ6IPu36toPQxm5lw17kNhJwtR7yToW55xD3U3",
                            "display": "EMH MR Imaging"
                        }
                    },
                    {
                        "location": {
                            "reference": "Location/eHCWC7LIQ6IPu36toPQxm5lw17kNhJwtR7yToW55xD3U3",
                            "display": "EMH MR Imaging"
                        }
                    },
                    {
                        "location": {
                            "reference": "Location/eQSOrLdbVrMRc68KBcTBG4A3",
                            "display": "Epic Hospital System"
                        }
                    }
                ]
            },
            "search": {
                "mode": "match"
            }
        },
        {
            "link": [
                {
                    "relation": "self",
                    "url": "https://appmarket.epic.com/interconnect-amcurprd-oauth/api/FHIR/R4/Encounter/eg.WI6gi4rGqfvwgFlQPFqw3"
                }
            ],
            "fullUrl": "https://appmarket.epic.com/interconnect-amcurprd-oauth/api/FHIR/R4/Encounter/eg.WI6gi4rGqfvwgFlQPFqw3",
            "resource": {
                "resourceType": "Encounter",
                "id": "eg.WI6gi4rGqfvwgFlQPFqw3",
                "identifier": [
                    {
                        "use": "usual",
                        "system": "urn:oid:1.2.840.114350.1.13.0.1.7.3.698084.8",
                        "value": "25700"
                    }
                ],
                "status": "in-progress",
                "class": {
                    "system": "urn:oid:1.2.840.114350.1.72.1.7.7.10.696784.13260",
                    "code": "13",
                    "display": "Support OP Encounter"
                },
                "type": [
                    {
                        "coding": [
                            {
                                "system": "urn:oid:1.2.840.114350.1.13.0.1.7.10.698084.30",
                                "code": "117",
                                "display": "Ancillary Orders"
                            }
                        ],
                        "text": "Ancillary Orders"
                    }
                ],
                "subject": {
                    "reference": "Patient/e9Bi2yhKnvFU8rsjpJpPMCw3",
                    "display": "Radiant, Alison"
                },
                "period": {
                    "start": "2016-07-28",
                    "end": "2016-07-28"
                },
                "location": [
                    {
                        "location": {
                            "reference": "Location/eHCWC7LIQ6IPu36toPQxm5lw17kNhJwtR7yToW55xD3U3",
                            "display": "EMH MR Imaging"
                        }
                    }
                ]
            },
            "search": {
                "mode": "match"
            }
        },
        {
            "link": [
                {
                    "relation": "self",
                    "url": "https://appmarket.epic.com/interconnect-amcurprd-oauth/api/FHIR/R4/Encounter/e4n0DEidvwoFAqryZDmb9.w3"
                }
            ],
            "fullUrl": "https://appmarket.epic.com/interconnect-amcurprd-oauth/api/FHIR/R4/Encounter/e4n0DEidvwoFAqryZDmb9.w3",
            "resource": {
                "resourceType": "Encounter",
                "id": "e4n0DEidvwoFAqryZDmb9.w3",
                "identifier": [
                    {
                        "use": "usual",
                        "system": "urn:oid:1.2.840.114350.1.13.0.1.7.3.698084.8",
                        "value": "20230"
                    }
                ],
                "status": "unknown",
                "class": {
                    "system": "urn:oid:1.2.840.114350.1.72.1.7.7.10.696784.13260",
                    "code": "13",
                    "display": "Support OP Encounter"
                },
                "type": [
                    {
                        "coding": [
                            {
                                "system": "urn:oid:1.2.840.114350.1.13.0.1.7.10.698084.30",
                                "code": "40",
                                "display": "Wait List"
                            }
                        ],
                        "text": "Wait List"
                    }
                ],
                "subject": {
                    "reference": "Patient/e9Bi2yhKnvFU8rsjpJpPMCw3",
                    "display": "Radiant, Alison"
                },
                "period": {
                    "start": "2016-03-07",
                    "end": "2016-03-07"
                },
                "location": [
                    {
                        "location": {
                            "reference": "Location/ed11n4-i8oztrjpHIELXPbcvQ0XhK7Rf0YuVpyGAIoPo3",
                            "display": "EMC Breast Imaging"
                        }
                    }
                ]
            },
            "search": {
                "mode": "match"
            }
        },
        {
            "link": [
                {
                    "relation": "self",
                    "url": "https://appmarket.epic.com/interconnect-amcurprd-oauth/api/FHIR/R4/Encounter/esXwr8ZhcYkrN2iYbZl96Ng3"
                }
            ],
            "fullUrl": "https://appmarket.epic.com/interconnect-amcurprd-oauth/api/FHIR/R4/Encounter/esXwr8ZhcYkrN2iYbZl96Ng3",
            "resource": {
                "resourceType": "Encounter",
                "id": "esXwr8ZhcYkrN2iYbZl96Ng3",
                "identifier": [
                    {
                        "use": "usual",
                        "system": "urn:oid:1.2.840.114350.1.13.0.1.7.3.698084.8",
                        "value": "20229"
                    }
                ],
                "status": "unknown",
                "class": {
                    "system": "urn:oid:1.2.840.114350.1.72.1.7.7.10.696784.13260",
                    "code": "13",
                    "display": "Support OP Encounter"
                },
                "type": [
                    {
                        "coding": [
                            {
                                "system": "urn:oid:1.2.840.114350.1.13.0.1.7.10.698084.30",
                                "code": "40",
                                "display": "Wait List"
                            }
                        ],
                        "text": "Wait List"
                    }
                ],
                "subject": {
                    "reference": "Patient/e9Bi2yhKnvFU8rsjpJpPMCw3",
                    "display": "Radiant, Alison"
                },
                "period": {
                    "start": "2016-03-07",
                    "end": "2016-03-07"
                },
                "location": [
                    {
                        "location": {
                            "reference": "Location/ed11n4-i8oztrjpHIELXPbcvQ0XhK7Rf0YuVpyGAIoPo3",
                            "display": "EMC Breast Imaging"
                        }
                    }
                ]
            },
            "search": {
                "mode": "match"
            }
        },
        {
            "link": [
                {
                    "relation": "self",
                    "url": "https://appmarket.epic.com/interconnect-amcurprd-oauth/api/FHIR/R4/Encounter/eHY8fgW7Dbwtkt1-TXVq54Q3"
                }
            ],
            "fullUrl": "https://appmarket.epic.com/interconnect-amcurprd-oauth/api/FHIR/R4/Encounter/eHY8fgW7Dbwtkt1-TXVq54Q3",
            "resource": {
                "resourceType": "Encounter",
                "id": "eHY8fgW7Dbwtkt1-TXVq54Q3",
                "identifier": [
                    {
                        "use": "usual",
                        "system": "urn:oid:1.2.840.114350.1.13.0.1.7.3.698084.8",
                        "value": "23836"
                    }
                ],
                "status": "finished",
                "class": {
                    "system": "urn:oid:1.2.840.114350.1.72.1.7.7.10.696784.13260",
                    "code": "13",
                    "display": "Support OP Encounter"
                },
                "type": [
                    {
                        "coding": [
                            {
                                "system": "urn:oid:1.2.840.114350.1.13.0.1.7.10.698084.30",
                                "code": "111",
                                "display": "Orders Only"
                            }
                        ],
                        "text": "Orders Only"
                    }
                ],
                "subject": {
                    "reference": "Patient/e9Bi2yhKnvFU8rsjpJpPMCw3",
                    "display": "Radiant, Alison"
                },
                "period": {
                    "start": "2016-03-01",
                    "end": "2016-03-01"
                },
                "location": [
                    {
                        "location": {
                            "reference": "Location/ebMDkIoNMQln3iIzo3nwSkgNSuWNrpYgObEUVctbTF5s3",
                            "display": "EMH IR Imaging"
                        }
                    }
                ]
            },
            "search": {
                "mode": "match"
            }
        },
        {
            "link": [
                {
                    "relation": "self",
                    "url": "https://appmarket.epic.com/interconnect-amcurprd-oauth/api/FHIR/R4/Encounter/e6.wWO.hWfcgxll-06XJ1Zw3"
                }
            ],
            "fullUrl": "https://appmarket.epic.com/interconnect-amcurprd-oauth/api/FHIR/R4/Encounter/e6.wWO.hWfcgxll-06XJ1Zw3",
            "resource": {
                "resourceType": "Encounter",
                "id": "e6.wWO.hWfcgxll-06XJ1Zw3",
                "identifier": [
                    {
                        "use": "usual",
                        "system": "urn:oid:1.2.840.114350.1.13.0.1.7.3.698084.8",
                        "value": "20269"
                    }
                ],
                "status": "in-progress",
                "class": {
                    "system": "urn:oid:1.2.840.114350.1.72.1.7.7.10.696784.13260",
                    "code": "4",
                    "display": "HOV"
                },
                "type": [
                    {
                        "coding": [
                            {
                                "system": "urn:oid:1.2.840.114350.1.13.0.1.7.10.698084.10110",
                                "code": "102",
                                "display": "Outpatient"
                            }
                        ],
                        "text": "Outpatient"
                    },
                    {
                        "coding": [
                            {
                                "system": "urn:oid:1.2.840.114350.1.13.0.1.7.10.698084.30",
                                "code": "3",
                                "display": "Hospital Encounter"
                            }
                        ],
                        "text": "Hospital Encounter"
                    },
                    {
                        "coding": [
                            {
                                "system": "urn:oid:1.2.840.114350.1.13.0.1.7.2.808267",
                                "code": "1050200",
                                "display": "CT Chest without Contrast"
                            }
                        ],
                        "text": "CT Chest without Contrast"
                    }
                ],
                "subject": {
                    "reference": "Patient/e9Bi2yhKnvFU8rsjpJpPMCw3",
                    "display": "Radiant, Alison"
                },
                "participant": [
                    {
                        "type": [
                            {
                                "coding": [
                                    {
                                        "system": "http://hl7.org/fhir/v3/ParticipationType",
                                        "code": "REF",
                                        "display": "referrer"
                                    }
                                ],
                                "text": "referrer"
                            }
                        ],
                        "individual": {
                            "reference": "Practitioner/eM5CWtq15N0WJeuCet5bJlQ3",
                            "type": "Practitioner",
                            "display": "Physician Family Medicine, MD"
                        }
                    },
                    {
                        "period": {
                            "start": "2015-01-26T14:45:00Z",
                            "end": "2015-01-26T15:15:00Z"
                        },
                        "individual": {
                            "display": "EMH CT 1"
                        }
                    }
                ],
                "period": {
                    "start": "2015-01-26T14:43:17Z"
                },
                "account": [
                    {
                        "identifier": {
                            "system": "urn:oid:1.2.840.114350.1.13.0.1.7.2.726582",
                            "value": "1000242"
                        },
                        "display": "RAD VALIDATE,ALISON"
                    }
                ],
                "hospitalization": {
                    "extension": [
                        {
                            "valueDateTime": "2015-01-26T14:43:17Z",
                            "url": "http://open.epic.com/FHIR/StructureDefinition/extension/observation-datetime"
                        }
                    ]
                },
                "location": [
                    {
                        "location": {
                            "reference": "Location/e4OG8BMMoOhcLXWmFuBvm8NlbjHAXxL7ZhxNIjoGyor43",
                            "display": "EMH CT Imaging"
                        }
                    },
                    {
                        "location": {
                            "reference": "Location/e4OG8BMMoOhcLXWmFuBvm8NlbjHAXxL7ZhxNIjoGyor43",
                            "display": "EMH CT Imaging"
                        }
                    },
                    {
                        "location": {
                            "reference": "Location/eQSOrLdbVrMRc68KBcTBG4A3",
                            "display": "Epic Hospital System"
                        }
                    }
                ]
            },
            "search": {
                "mode": "match"
            }
        },
        {
            "link": [
                {
                    "relation": "self",
                    "url": "https://appmarket.epic.com/interconnect-amcurprd-oauth/api/FHIR/R4/Encounter/eVuraIA2Kvivws4aLD2xF6g3"
                }
            ],
            "fullUrl": "https://appmarket.epic.com/interconnect-amcurprd-oauth/api/FHIR/R4/Encounter/eVuraIA2Kvivws4aLD2xF6g3",
            "resource": {
                "resourceType": "Encounter",
                "id": "eVuraIA2Kvivws4aLD2xF6g3",
                "identifier": [
                    {
                        "use": "usual",
                        "system": "urn:oid:1.2.840.114350.1.13.0.1.7.3.698084.8",
                        "value": "20268"
                    }
                ],
                "status": "in-progress",
                "class": {
                    "system": "urn:oid:1.2.840.114350.1.72.1.7.7.10.696784.13260",
                    "code": "13",
                    "display": "Support OP Encounter"
                },
                "type": [
                    {
                        "coding": [
                            {
                                "system": "urn:oid:1.2.840.114350.1.13.0.1.7.10.698084.30",
                                "code": "117",
                                "display": "Ancillary Orders"
                            }
                        ],
                        "text": "Ancillary Orders"
                    }
                ],
                "subject": {
                    "reference": "Patient/e9Bi2yhKnvFU8rsjpJpPMCw3",
                    "display": "Radiant, Alison"
                },
                "period": {
                    "start": "2015-01-26",
                    "end": "2015-01-26"
                },
                "location": [
                    {
                        "location": {
                            "reference": "Location/e4OG8BMMoOhcLXWmFuBvm8NlbjHAXxL7ZhxNIjoGyor43",
                            "display": "EMH CT Imaging"
                        }
                    }
                ]
            },
            "search": {
                "mode": "match"
            }
        },
        {
            "link": [
                {
                    "relation": "self",
                    "url": "https://appmarket.epic.com/interconnect-amcurprd-oauth/api/FHIR/R4/Encounter/eR5-1568xDG2sgHD2GVwFWQ3"
                }
            ],
            "fullUrl": "https://appmarket.epic.com/interconnect-amcurprd-oauth/api/FHIR/R4/Encounter/eR5-1568xDG2sgHD2GVwFWQ3",
            "resource": {
                "resourceType": "Encounter",
                "id": "eR5-1568xDG2sgHD2GVwFWQ3",
                "identifier": [
                    {
                        "use": "usual",
                        "system": "urn:oid:1.2.840.114350.1.13.0.1.7.3.698084.8",
                        "value": "20232"
                    }
                ],
                "status": "in-progress",
                "class": {
                    "system": "urn:oid:1.2.840.114350.1.72.1.7.7.10.696784.13260",
                    "code": "4",
                    "display": "HOV"
                },
                "type": [
                    {
                        "coding": [
                            {
                                "system": "urn:oid:1.2.840.114350.1.13.0.1.7.10.698084.10110",
                                "code": "102",
                                "display": "Outpatient"
                            }
                        ],
                        "text": "Outpatient"
                    },
                    {
                        "coding": [
                            {
                                "system": "urn:oid:1.2.840.114350.1.13.0.1.7.10.698084.30",
                                "code": "3",
                                "display": "Hospital Encounter"
                            }
                        ],
                        "text": "Hospital Encounter"
                    },
                    {
                        "coding": [
                            {
                                "system": "urn:oid:1.2.840.114350.1.13.0.1.7.2.808267",
                                "code": "1050588",
                                "display": "Breast Imaging Diagnostic Left"
                            }
                        ],
                        "text": "Breast Imaging Diagnostic Left"
                    }
                ],
                "subject": {
                    "reference": "Patient/e9Bi2yhKnvFU8rsjpJpPMCw3",
                    "display": "Radiant, Alison"
                },
                "participant": [
                    {
                        "type": [
                            {
                                "coding": [
                                    {
                                        "system": "http://hl7.org/fhir/v3/ParticipationType",
                                        "code": "REF",
                                        "display": "referrer"
                                    }
                                ],
                                "text": "referrer"
                            }
                        ],
                        "individual": {
                            "reference": "Practitioner/eM5CWtq15N0WJeuCet5bJlQ3",
                            "type": "Practitioner",
                            "display": "Physician Family Medicine, MD"
                        }
                    },
                    {
                        "period": {
                            "start": "2015-01-07T22:35:00Z",
                            "end": "2015-01-07T23:05:00Z"
                        },
                        "individual": {
                            "display": "EMH MAMMO 1"
                        }
                    }
                ],
                "period": {
                    "start": "2015-01-07T22:29:29Z"
                },
                "account": [
                    {
                        "identifier": {
                            "system": "urn:oid:1.2.840.114350.1.13.0.1.7.2.726582",
                            "value": "1000230"
                        },
                        "display": "RADIANT,ALISON"
                    }
                ],
                "hospitalization": {
                    "extension": [
                        {
                            "valueDateTime": "2015-01-07T22:29:29Z",
                            "url": "http://open.epic.com/FHIR/StructureDefinition/extension/observation-datetime"
                        }
                    ]
                },
                "location": [
                    {
                        "location": {
                            "reference": "Location/eD8ikaFBKcpOvpRyCKpgtNhQ7aB5JuL5gRN0tzq4vFYc3",
                            "display": "EMH Breast Imaging"
                        }
                    },
                    {
                        "location": {
                            "reference": "Location/eD8ikaFBKcpOvpRyCKpgtNhQ7aB5JuL5gRN0tzq4vFYc3",
                            "display": "EMH Breast Imaging"
                        }
                    },
                    {
                        "location": {
                            "reference": "Location/eQSOrLdbVrMRc68KBcTBG4A3",
                            "display": "Epic Hospital System"
                        }
                    }
                ]
            },
            "search": {
                "mode": "match"
            }
        },
        {
            "link": [
                {
                    "relation": "self",
                    "url": "https://appmarket.epic.com/interconnect-amcurprd-oauth/api/FHIR/R4/Encounter/eQGDn55zvC6HfQJVvvVwbZg3"
                }
            ],
            "fullUrl": "https://appmarket.epic.com/interconnect-amcurprd-oauth/api/FHIR/R4/Encounter/eQGDn55zvC6HfQJVvvVwbZg3",
            "resource": {
                "resourceType": "Encounter",
                "id": "eQGDn55zvC6HfQJVvvVwbZg3",
                "identifier": [
                    {
                        "use": "usual",
                        "system": "urn:oid:1.2.840.114350.1.13.0.1.7.3.698084.8",
                        "value": "20231"
                    }
                ],
                "status": "in-progress",
                "class": {
                    "system": "urn:oid:1.2.840.114350.1.72.1.7.7.10.696784.13260",
                    "code": "4",
                    "display": "HOV"
                },
                "type": [
                    {
                        "coding": [
                            {
                                "system": "urn:oid:1.2.840.114350.1.13.0.1.7.10.698084.10110",
                                "code": "102",
                                "display": "Outpatient"
                            }
                        ],
                        "text": "Outpatient"
                    },
                    {
                        "coding": [
                            {
                                "system": "urn:oid:1.2.840.114350.1.13.0.1.7.10.698084.30",
                                "code": "3",
                                "display": "Hospital Encounter"
                            }
                        ],
                        "text": "Hospital Encounter"
                    },
                    {
                        "coding": [
                            {
                                "system": "urn:oid:1.2.840.114350.1.13.0.1.7.2.808267",
                                "code": "1050605",
                                "display": "Breast Imaging Screening Bilateral"
                            }
                        ],
                        "text": "Breast Imaging Screening Bilateral"
                    }
                ],
                "subject": {
                    "reference": "Patient/e9Bi2yhKnvFU8rsjpJpPMCw3",
                    "display": "Radiant, Alison"
                },
                "participant": [
                    {
                        "type": [
                            {
                                "coding": [
                                    {
                                        "system": "http://hl7.org/fhir/v3/ParticipationType",
                                        "code": "REF",
                                        "display": "referrer"
                                    }
                                ],
                                "text": "referrer"
                            }
                        ],
                        "individual": {
                            "reference": "Practitioner/eM5CWtq15N0WJeuCet5bJlQ3",
                            "type": "Practitioner",
                            "display": "Physician Family Medicine, MD"
                        }
                    },
                    {
                        "period": {
                            "start": "2015-01-07T22:30:00Z",
                            "end": "2015-01-07T22:45:00Z"
                        },
                        "individual": {
                            "display": "EMH MAMMO 1"
                        }
                    }
                ],
                "period": {
                    "start": "2015-01-07T22:28:46Z"
                },
                "account": [
                    {
                        "identifier": {
                            "system": "urn:oid:1.2.840.114350.1.13.0.1.7.2.726582",
                            "value": "1000230"
                        },
                        "display": "RADIANT,ALISON"
                    }
                ],
                "hospitalization": {
                    "extension": [
                        {
                            "valueDateTime": "2015-01-07T22:28:46Z",
                            "url": "http://open.epic.com/FHIR/StructureDefinition/extension/observation-datetime"
                        }
                    ]
                },
                "location": [
                    {
                        "location": {
                            "reference": "Location/eD8ikaFBKcpOvpRyCKpgtNhQ7aB5JuL5gRN0tzq4vFYc3",
                            "display": "EMH Breast Imaging"
                        }
                    },
                    {
                        "location": {
                            "reference": "Location/eD8ikaFBKcpOvpRyCKpgtNhQ7aB5JuL5gRN0tzq4vFYc3",
                            "display": "EMH Breast Imaging"
                        }
                    },
                    {
                        "location": {
                            "reference": "Location/eQSOrLdbVrMRc68KBcTBG4A3",
                            "display": "Epic Hospital System"
                        }
                    }
                ]
            },
            "search": {
                "mode": "match"
            }
        },
        {
            "link": [
                {
                    "relation": "self",
                    "url": "https://appmarket.epic.com/interconnect-amcurprd-oauth/api/FHIR/R4/Encounter/eZCYnB0m1K8VTzpq7DhJQGg3"
                }
            ],
            "fullUrl": "https://appmarket.epic.com/interconnect-amcurprd-oauth/api/FHIR/R4/Encounter/eZCYnB0m1K8VTzpq7DhJQGg3",
            "resource": {
                "resourceType": "Encounter",
                "id": "eZCYnB0m1K8VTzpq7DhJQGg3",
                "identifier": [
                    {
                        "use": "usual",
                        "system": "urn:oid:1.2.840.114350.1.13.0.1.7.3.698084.8",
                        "value": "20228"
                    }
                ],
                "status": "in-progress",
                "class": {
                    "system": "urn:oid:1.2.840.114350.1.72.1.7.7.10.696784.13260",
                    "code": "13",
                    "display": "Support OP Encounter"
                },
                "type": [
                    {
                        "coding": [
                            {
                                "system": "urn:oid:1.2.840.114350.1.13.0.1.7.10.698084.30",
                                "code": "117",
                                "display": "Ancillary Orders"
                            }
                        ],
                        "text": "Ancillary Orders"
                    }
                ],
                "subject": {
                    "reference": "Patient/e9Bi2yhKnvFU8rsjpJpPMCw3",
                    "display": "Radiant, Alison"
                },
                "period": {
                    "start": "2015-01-07",
                    "end": "2015-01-07"
                },
                "location": [
                    {
                        "location": {
                            "reference": "Location/e4W4rmGe9QzuGm2Dy4NBqVc0KDe6yGld6HW95UuN-Qd03",
                            "display": "EMC Family Medicine"
                        }
                    }
                ]
            },
            "search": {
                "mode": "match"
            }
        },
        {
            "link": [
                {
                    "relation": "self",
                    "url": "https://appmarket.epic.com/interconnect-amcurprd-oauth/api/FHIR/R4/Encounter/efyDWHwgmmuczbNgmn4v54Q3"
                }
            ],
            "fullUrl": "https://appmarket.epic.com/interconnect-amcurprd-oauth/api/FHIR/R4/Encounter/efyDWHwgmmuczbNgmn4v54Q3",
            "resource": {
                "resourceType": "Encounter",
                "id": "efyDWHwgmmuczbNgmn4v54Q3",
                "identifier": [
                    {
                        "use": "usual",
                        "system": "urn:oid:1.2.840.114350.1.13.0.1.7.3.698084.8",
                        "value": "11970"
                    }
                ],
                "status": "finished",
                "class": {
                    "system": "urn:oid:1.2.840.114350.1.72.1.7.7.10.696784.13260",
                    "code": "5",
                    "display": "Appointment"
                },
                "type": [
                    {
                        "coding": [
                            {
                                "system": "urn:oid:1.2.840.114350.1.13.0.1.7.10.698084.10110",
                                "code": "102",
                                "display": "Outpatient"
                            }
                        ],
                        "text": "Outpatient"
                    },
                    {
                        "coding": [
                            {
                                "system": "urn:oid:1.2.840.114350.1.13.0.1.7.10.698084.30",
                                "code": "50",
                                "display": "Appointment"
                            }
                        ],
                        "text": "Appointment"
                    }
                ],
                "subject": {
                    "reference": "Patient/e9Bi2yhKnvFU8rsjpJpPMCw3",
                    "display": "Radiant, Alison"
                },
                "participant": [
                    {
                        "type": [
                            {
                                "coding": [
                                    {
                                        "system": "http://hl7.org/fhir/v3/ParticipationType",
                                        "code": "REF",
                                        "display": "referrer"
                                    }
                                ],
                                "text": "referrer"
                            }
                        ],
                        "individual": {
                            "reference": "Practitioner/eM5CWtq15N0WJeuCet5bJlQ3",
                            "type": "Practitioner",
                            "display": "Physician Family Medicine, MD"
                        }
                    },
                    {
                        "period": {
                            "start": "2013-11-08T19:00:00Z",
                            "end": "2013-11-08T19:45:00Z"
                        },
                        "individual": {
                            "display": "EMC MRI"
                        }
                    }
                ],
                "period": {
                    "start": "2013-11-08T19:00:00Z",
                    "end": "2013-11-08T19:45:00Z"
                },
                "location": [
                    {
                        "location": {
                            "reference": "Location/e8v41.uzqmi5.bka69soWFfQAZwRGAPG9w2RZCdUhMag3",
                            "display": "EMC MR Imaging"
                        }
                    }
                ]
            },
            "search": {
                "mode": "match"
            }
        },
        {
            "link": [
                {
                    "relation": "self",
                    "url": "https://appmarket.epic.com/interconnect-amcurprd-oauth/api/FHIR/R4/Encounter/eVSNw9IvS4n84eoze-e7jzw3"
                }
            ],
            "fullUrl": "https://appmarket.epic.com/interconnect-amcurprd-oauth/api/FHIR/R4/Encounter/eVSNw9IvS4n84eoze-e7jzw3",
            "resource": {
                "resourceType": "Encounter",
                "id": "eVSNw9IvS4n84eoze-e7jzw3",
                "identifier": [
                    {
                        "use": "usual",
                        "system": "urn:oid:1.2.840.114350.1.13.0.1.7.3.698084.8",
                        "value": "11971"
                    }
                ],
                "status": "in-progress",
                "class": {
                    "system": "urn:oid:1.2.840.114350.1.72.1.7.7.10.696784.13260",
                    "code": "13",
                    "display": "Support OP Encounter"
                },
                "type": [
                    {
                        "coding": [
                            {
                                "system": "urn:oid:1.2.840.114350.1.13.0.1.7.10.698084.30",
                                "code": "117",
                                "display": "Ancillary Orders"
                            }
                        ],
                        "text": "Ancillary Orders"
                    }
                ],
                "subject": {
                    "reference": "Patient/e9Bi2yhKnvFU8rsjpJpPMCw3",
                    "display": "Radiant, Alison"
                },
                "period": {
                    "start": "2013-11-08",
                    "end": "2013-11-08"
                },
                "location": [
                    {
                        "location": {
                            "reference": "Location/e4W4rmGe9QzuGm2Dy4NBqVc0KDe6yGld6HW95UuN-Qd03",
                            "display": "EMC Family Medicine"
                        }
                    }
                ]
            },
            "search": {
                "mode": "match"
            }
        },
        {
            "link": [
                {
                    "relation": "self",
                    "url": "https://appmarket.epic.com/interconnect-amcurprd-oauth/api/FHIR/R4/Encounter/eLS3VYVbhGwK0AQoeIersoQ3"
                }
            ],
            "fullUrl": "https://appmarket.epic.com/interconnect-amcurprd-oauth/api/FHIR/R4/Encounter/eLS3VYVbhGwK0AQoeIersoQ3",
            "resource": {
                "resourceType": "Encounter",
                "id": "eLS3VYVbhGwK0AQoeIersoQ3",
                "identifier": [
                    {
                        "use": "usual",
                        "system": "urn:oid:1.2.840.114350.1.13.0.1.7.3.698084.8",
                        "value": "11972"
                    }
                ],
                "status": "finished",
                "class": {
                    "system": "urn:oid:1.2.840.114350.1.72.1.7.7.10.696784.13260",
                    "code": "13",
                    "display": "Support OP Encounter"
                },
                "type": [
                    {
                        "coding": [
                            {
                                "system": "urn:oid:1.2.840.114350.1.13.0.1.7.10.698084.30",
                                "code": "111",
                                "display": "Orders Only"
                            }
                        ],
                        "text": "Orders Only"
                    }
                ],
                "subject": {
                    "reference": "Patient/e9Bi2yhKnvFU8rsjpJpPMCw3",
                    "display": "Radiant, Alison"
                },
                "period": {
                    "start": "2011-06-02",
                    "end": "2011-06-02"
                },
                "location": [
                    {
                        "location": {
                            "reference": "Location/e4W4rmGe9QzuGm2Dy4NBqVc0KDe6yGld6HW95UuN-Qd03",
                            "display": "EMC Family Medicine"
                        }
                    }
                ]
            },
            "search": {
                "mode": "match"
            }
        },
        {
            "link": [
                {
                    "relation": "self",
                    "url": "https://appmarket.epic.com/interconnect-amcurprd-oauth/api/FHIR/R4/Encounter/e6C5HJMIIuOJBlIJQGv2hBQ3"
                }
            ],
            "fullUrl": "https://appmarket.epic.com/interconnect-amcurprd-oauth/api/FHIR/R4/Encounter/e6C5HJMIIuOJBlIJQGv2hBQ3",
            "resource": {
                "resourceType": "Encounter",
                "id": "e6C5HJMIIuOJBlIJQGv2hBQ3",
                "extension": [
                    {
                        "valueBoolean": false,
                        "url": "http://open.epic.com/FHIR/StructureDefinition/extension/accidentrelated"
                    }
                ],
                "identifier": [
                    {
                        "use": "usual",
                        "system": "urn:oid:1.2.840.114350.1.13.0.1.7.3.698084.8",
                        "value": "11973"
                    }
                ],
                "status": "finished",
                "class": {
                    "system": "urn:oid:1.2.840.114350.1.72.1.7.7.10.696784.13260",
                    "code": "6",
                    "display": "Discharge"
                },
                "type": [
                    {
                        "coding": [
                            {
                                "system": "urn:oid:1.2.840.114350.1.13.0.1.7.10.698084.10110",
                                "code": "102",
                                "display": "Outpatient"
                            }
                        ],
                        "text": "Outpatient"
                    },
                    {
                        "coding": [
                            {
                                "system": "urn:oid:1.2.840.114350.1.13.0.1.7.10.698084.30",
                                "code": "3",
                                "display": "Hospital Encounter"
                            }
                        ],
                        "text": "Hospital Encounter"
                    },
                    {
                        "coding": [
                            {
                                "system": "urn:oid:1.2.840.114350.1.13.0.1.7.10.698084.18875",
                                "code": "3",
                                "display": "Elective"
                            }
                        ],
                        "text": "Elective"
                    }
                ],
                "serviceType": {
                    "coding": [
                        {
                            "system": "urn:oid:1.2.840.114350.1.13.0.1.7.10.698084.18886",
                            "code": "146",
                            "display": "Vascular Surgery"
                        }
                    ],
                    "text": "Vascular Surgery"
                },
                "subject": {
                    "reference": "Patient/e9Bi2yhKnvFU8rsjpJpPMCw3",
                    "display": "Radiant, Alison"
                },
                "participant": [
                    {
                        "type": [
                            {
                                "coding": [
                                    {
                                        "system": "http://hl7.org/fhir/v3/ParticipationType",
                                        "code": "ADM",
                                        "display": "admitter"
                                    }
                                ],
                                "text": "admitter"
                            }
                        ],
                        "individual": {
                            "reference": "Practitioner/ekK9AsfvYqLnReaTbTwFKWg3",
                            "type": "Practitioner"
                        }
                    },
                    {
                        "type": [
                            {
                                "coding": [
                                    {
                                        "system": "http://hl7.org/fhir/v3/ParticipationType",
                                        "code": "ATND",
                                        "display": "attender"
                                    }
                                ],
                                "text": "attender"
                            }
                        ],
                        "period": {
                            "start": "2011-04-16T16:26:54Z",
                            "end": "2011-06-02T13:00:00Z"
                        },
                        "individual": {
                            "reference": "Practitioner/ekK9AsfvYqLnReaTbTwFKWg3",
                            "type": "Practitioner"
                        }
                    }
                ],
                "period": {
                    "start": "2011-04-16T16:26:54Z",
                    "end": "2011-06-02T13:00:00Z"
                },
                "account": [
                    {
                        "identifier": {
                            "system": "urn:oid:1.2.840.114350.1.13.0.1.7.2.726582",
                            "value": "758"
                        },
                        "display": "RADIANT,ALISON"
                    }
                ],
                "hospitalization": {
                    "extension": [
                        {
                            "valueDateTime": "2011-04-16T16:26:54Z",
                            "url": "http://open.epic.com/FHIR/StructureDefinition/extension/observation-datetime"
                        }
                    ],
                    "admitSource": {
                        "coding": [
                            {
                                "system": "urn:oid:1.2.840.114350.1.13.0.1.7.10.698084.10310",
                                "code": "2",
                                "display": "Physician or Clinic Office"
                            }
                        ],
                        "text": "Physician or Clinic Office"
                    },
                    "dischargeDisposition": {
                        "coding": [
                            {
                                "system": "urn:oid:1.2.840.114350.1.13.0.1.7.10.698084.18888",
                                "code": "1",
                                "display": "Home or Self Care"
                            }
                        ],
                        "text": "Home or Self Care"
                    }
                },
                "location": [
                    {
                        "location": {
                            "reference": "Location/eO-3e71xq6A5Xp7leBMrw5X-8sAl6UHIF91p7maQKFdU3",
                            "display": "EMH Medical Surgical"
                        },
                        "period": {
                            "start": "2011-04-16T16:26:00Z",
                            "end": "2011-04-16T16:27:00Z"
                        }
                    },
                    {
                        "location": {
                            "reference": "Location/e96ftQhMhgPbIeo4ZUKblbfhGFtoiEN.gDnEWtXGebGE3",
                            "display": "EMH Pre-operation"
                        },
                        "period": {
                            "start": "2011-04-16T16:27:00Z",
                            "end": "2011-04-16T16:30:00Z"
                        }
                    },
                    {
                        "location": {
                            "reference": "Location/ebMDkIoNMQln3iIzo3nwSkgNSuWNrpYgObEUVctbTF5s3",
                            "display": "EMH IR Imaging"
                        },
                        "period": {
                            "start": "2011-04-16T16:30:00Z",
                            "end": "2011-04-17T13:00:00Z"
                        }
                    },
                    {
                        "location": {
                            "reference": "Location/ezuGIy7r0eGjbSROdnPqLGrq77x5UKuC8QTsUskre3Iw3",
                            "display": "EMH Intensive Care"
                        },
                        "period": {
                            "start": "2011-04-17T13:00:00Z",
                            "end": "2011-06-02T13:00:00Z"
                        }
                    },
                    {
                        "location": {
                            "reference": "Location/ezuGIy7r0eGjbSROdnPqLGrq77x5UKuC8QTsUskre3Iw3",
                            "display": "EMH Intensive Care"
                        }
                    },
                    {
                        "location": {
                            "reference": "Location/eQSOrLdbVrMRc68KBcTBG4A3",
                            "display": "Epic Hospital System"
                        }
                    },
                    {
                        "location": {
                            "reference": "Location/eNcPUAitRz18tkoTnkzRWng3",
                            "display": "104"
                        },
                        "physicalType": {
                            "coding": [
                                {
                                    "system": "http://terminology.hl7.org/CodeSystem/location-physical-type",
                                    "code": "ro",
                                    "display": "Room"
                                }
                            ],
                            "text": "Room"
                        }
                    },
                    {
                        "location": {
                            "identifier": {
                                "system": "urn:oid:1.2.840.114350.1.13.0.1.7.2.666968",
                                "value": "183"
                            },
                            "display": "104-01"
                        },
                        "physicalType": {
                            "coding": [
                                {
                                    "system": "http://terminology.hl7.org/CodeSystem/location-physical-type",
                                    "code": "bd",
                                    "display": "Bed"
                                }
                            ],
                            "text": "Bed"
                        }
                    }
                ]
            },
            "search": {
                "mode": "match"
            }
        },
        {
            "link": [
                {
                    "relation": "self",
                    "url": "https://appmarket.epic.com/interconnect-amcurprd-oauth/api/FHIR/R4/Encounter/eXTfLHkMtiyh.8487UcvPQA3"
                }
            ],
            "fullUrl": "https://appmarket.epic.com/interconnect-amcurprd-oauth/api/FHIR/R4/Encounter/eXTfLHkMtiyh.8487UcvPQA3",
            "resource": {
                "resourceType": "Encounter",
                "id": "eXTfLHkMtiyh.8487UcvPQA3",
                "identifier": [
                    {
                        "use": "usual",
                        "system": "urn:oid:1.2.840.114350.1.13.0.1.7.3.698084.8",
                        "value": "11974"
                    }
                ],
                "status": "unknown",
                "class": {
                    "system": "urn:oid:1.2.840.114350.1.72.1.7.7.10.696784.13260",
                    "code": "10",
                    "display": "Surgery Log"
                },
                "type": [
                    {
                        "coding": [
                            {
                                "system": "urn:oid:1.2.840.114350.1.13.0.1.7.10.698084.30",
                                "code": "51",
                                "display": "Surgery"
                            }
                        ],
                        "text": "Surgery"
                    }
                ],
                "subject": {
                    "reference": "Patient/e9Bi2yhKnvFU8rsjpJpPMCw3",
                    "display": "Radiant, Alison"
                },
                "period": {
                    "start": "2011-04-16T14:00:00Z",
                    "end": "2011-04-16T15:30:00Z"
                },
                "location": [
                    {
                        "location": {
                            "reference": "Location/eemP7-W6pa9-anwU4tQgwn7NKhpCjP.oipNazAs46zsA3",
                            "display": "EMH Interventional Radiology Imaging"
                        }
                    }
                ],
                "partOf": {
                    "reference": "Encounter/e6C5HJMIIuOJBlIJQGv2hBQ3",
                    "identifier": {
                        "use": "usual",
                        "system": "urn:oid:1.2.840.114350.1.13.0.1.7.3.698084.8",
                        "value": "11973"
                    },
                    "display": "Hospital Encounter"
                }
            },
            "search": {
                "mode": "match"
            }
        },
        {
            "link": [
                {
                    "relation": "self",
                    "url": "https://appmarket.epic.com/interconnect-amcurprd-oauth/api/FHIR/R4/Encounter/eMSrEYe32VgQGVsm5JZEq8g3"
                }
            ],
            "fullUrl": "https://appmarket.epic.com/interconnect-amcurprd-oauth/api/FHIR/R4/Encounter/eMSrEYe32VgQGVsm5JZEq8g3",
            "resource": {
                "resourceType": "Encounter",
                "id": "eMSrEYe32VgQGVsm5JZEq8g3",
                "identifier": [
                    {
                        "use": "usual",
                        "system": "urn:oid:1.2.840.114350.1.13.0.1.7.3.698084.8",
                        "value": "11975"
                    }
                ],
                "status": "unknown",
                "class": {
                    "system": "urn:oid:1.2.840.114350.1.72.1.7.7.10.696784.13260",
                    "code": "13",
                    "display": "Support OP Encounter"
                },
                "subject": {
                    "reference": "Patient/e9Bi2yhKnvFU8rsjpJpPMCw3",
                    "display": "Radiant, Alison"
                },
                "period": {
                    "start": "2010-12-04",
                    "end": "2010-12-04"
                }
            },
            "search": {
                "mode": "match"
            }
        },
        {
            "link": [
                {
                    "relation": "self",
                    "url": "https://appmarket.epic.com/interconnect-amcurprd-oauth/api/FHIR/R4/Encounter/e7sa0D0Bc0e0.OoISeuq1CA3"
                }
            ],
            "fullUrl": "https://appmarket.epic.com/interconnect-amcurprd-oauth/api/FHIR/R4/Encounter/e7sa0D0Bc0e0.OoISeuq1CA3",
            "resource": {
                "resourceType": "Encounter",
                "id": "e7sa0D0Bc0e0.OoISeuq1CA3",
                "identifier": [
                    {
                        "use": "usual",
                        "system": "urn:oid:1.2.840.114350.1.13.0.1.7.3.698084.8",
                        "value": "11976"
                    }
                ],
                "status": "unknown",
                "class": {
                    "system": "urn:oid:1.2.840.114350.1.72.1.7.7.10.696784.13260",
                    "code": "13",
                    "display": "Support OP Encounter"
                },
                "subject": {
                    "reference": "Patient/e9Bi2yhKnvFU8rsjpJpPMCw3",
                    "display": "Radiant, Alison"
                },
                "period": {
                    "start": "2010-12-04",
                    "end": "2010-12-04"
                }
            },
            "search": {
                "mode": "match"
            }
        },
        {
            "link": [
                {
                    "relation": "self",
                    "url": "https://appmarket.epic.com/interconnect-amcurprd-oauth/api/FHIR/R4/Encounter/eVss9lgS.RwQxVx7ALTq8VQ3"
                }
            ],
            "fullUrl": "https://appmarket.epic.com/interconnect-amcurprd-oauth/api/FHIR/R4/Encounter/eVss9lgS.RwQxVx7ALTq8VQ3",
            "resource": {
                "resourceType": "Encounter",
                "id": "eVss9lgS.RwQxVx7ALTq8VQ3",
                "identifier": [
                    {
                        "use": "usual",
                        "system": "urn:oid:1.2.840.114350.1.13.0.1.7.3.698084.8",
                        "value": "11977"
                    }
                ],
                "status": "in-progress",
                "class": {
                    "system": "urn:oid:1.2.840.114350.1.72.1.7.7.10.696784.13260",
                    "code": "13",
                    "display": "Support OP Encounter"
                },
                "type": [
                    {
                        "coding": [
                            {
                                "system": "urn:oid:1.2.840.114350.1.13.0.1.7.10.698084.30",
                                "code": "117",
                                "display": "Ancillary Orders"
                            }
                        ],
                        "text": "Ancillary Orders"
                    }
                ],
                "subject": {
                    "reference": "Patient/e9Bi2yhKnvFU8rsjpJpPMCw3",
                    "display": "Radiant, Alison"
                },
                "period": {
                    "start": "2010-08-06",
                    "end": "2010-08-06"
                },
                "location": [
                    {
                        "location": {
                            "reference": "Location/e4W4rmGe9QzuGm2Dy4NBqVc0KDe6yGld6HW95UuN-Qd03",
                            "display": "EMC Family Medicine"
                        }
                    }
                ]
            },
            "search": {
                "mode": "match"
            }
        },
        {
            "link": [
                {
                    "relation": "self",
                    "url": "https://appmarket.epic.com/interconnect-amcurprd-oauth/api/FHIR/R4/Encounter/eLsYsmbFCI063gVvaaDmSkg3"
                }
            ],
            "fullUrl": "https://appmarket.epic.com/interconnect-amcurprd-oauth/api/FHIR/R4/Encounter/eLsYsmbFCI063gVvaaDmSkg3",
            "resource": {
                "resourceType": "Encounter",
                "id": "eLsYsmbFCI063gVvaaDmSkg3",
                "identifier": [
                    {
                        "use": "usual",
                        "system": "urn:oid:1.2.840.114350.1.13.0.1.7.3.698084.8",
                        "value": "11978"
                    }
                ],
                "status": "unknown",
                "class": {
                    "system": "urn:oid:1.2.840.114350.1.72.1.7.7.10.696784.13260",
                    "code": "13",
                    "display": "Support OP Encounter"
                },
                "subject": {
                    "reference": "Patient/e9Bi2yhKnvFU8rsjpJpPMCw3",
                    "display": "Radiant, Alison"
                },
                "period": {
                    "start": "2010-04-18",
                    "end": "2010-04-18"
                }
            },
            "search": {
                "mode": "match"
            }
        },
        {
            "link": [
                {
                    "relation": "self",
                    "url": "https://appmarket.epic.com/interconnect-amcurprd-oauth/api/FHIR/R4/Encounter/eoy5EcUzdM2V8W4AzaL0nyg3"
                }
            ],
            "fullUrl": "https://appmarket.epic.com/interconnect-amcurprd-oauth/api/FHIR/R4/Encounter/eoy5EcUzdM2V8W4AzaL0nyg3",
            "resource": {
                "resourceType": "Encounter",
                "id": "eoy5EcUzdM2V8W4AzaL0nyg3",
                "identifier": [
                    {
                        "use": "usual",
                        "system": "urn:oid:1.2.840.114350.1.13.0.1.7.3.698084.8",
                        "value": "11979"
                    }
                ],
                "status": "unknown",
                "class": {
                    "system": "urn:oid:1.2.840.114350.1.72.1.7.7.10.696784.13260",
                    "code": "13",
                    "display": "Support OP Encounter"
                },
                "subject": {
                    "reference": "Patient/e9Bi2yhKnvFU8rsjpJpPMCw3",
                    "display": "Radiant, Alison"
                },
                "period": {
                    "start": "2010-04-18",
                    "end": "2010-04-18"
                }
            },
            "search": {
                "mode": "match"
            }
        },
        {
            "link": [
                {
                    "relation": "self",
                    "url": "https://appmarket.epic.com/interconnect-amcurprd-oauth/api/FHIR/R4/Encounter/eb3F4JUFchVOtf1O9h5JuGQ3"
                }
            ],
            "fullUrl": "https://appmarket.epic.com/interconnect-amcurprd-oauth/api/FHIR/R4/Encounter/eb3F4JUFchVOtf1O9h5JuGQ3",
            "resource": {
                "resourceType": "Encounter",
                "id": "eb3F4JUFchVOtf1O9h5JuGQ3",
                "identifier": [
                    {
                        "use": "usual",
                        "system": "urn:oid:1.2.840.114350.1.13.0.1.7.3.698084.8",
                        "value": "11980"
                    }
                ],
                "status": "unknown",
                "class": {
                    "system": "urn:oid:1.2.840.114350.1.72.1.7.7.10.696784.13260",
                    "code": "13",
                    "display": "Support OP Encounter"
                },
                "subject": {
                    "reference": "Patient/e9Bi2yhKnvFU8rsjpJpPMCw3",
                    "display": "Radiant, Alison"
                },
                "period": {
                    "start": "2010-03-26",
                    "end": "2010-03-26"
                }
            },
            "search": {
                "mode": "match"
            }
        },
        {
            "link": [
                {
                    "relation": "self",
                    "url": "https://appmarket.epic.com/interconnect-amcurprd-oauth/api/FHIR/R4/Encounter/eUmO.UtlioM8ReFjampP-Zg3"
                }
            ],
            "fullUrl": "https://appmarket.epic.com/interconnect-amcurprd-oauth/api/FHIR/R4/Encounter/eUmO.UtlioM8ReFjampP-Zg3",
            "resource": {
                "resourceType": "Encounter",
                "id": "eUmO.UtlioM8ReFjampP-Zg3",
                "identifier": [
                    {
                        "use": "usual",
                        "system": "urn:oid:1.2.840.114350.1.13.0.1.7.3.698084.8",
                        "value": "11981"
                    }
                ],
                "status": "finished",
                "class": {
                    "system": "urn:oid:1.2.840.114350.1.72.1.7.7.10.696784.13260",
                    "code": "5",
                    "display": "Appointment"
                },
                "type": [
                    {
                        "coding": [
                            {
                                "system": "urn:oid:1.2.840.114350.1.13.0.1.7.10.698084.10110",
                                "code": "102",
                                "display": "Outpatient"
                            }
                        ],
                        "text": "Outpatient"
                    },
                    {
                        "coding": [
                            {
                                "system": "urn:oid:1.2.840.114350.1.13.0.1.7.10.698084.30",
                                "code": "50",
                                "display": "Appointment"
                            }
                        ],
                        "text": "Appointment"
                    }
                ],
                "subject": {
                    "reference": "Patient/e9Bi2yhKnvFU8rsjpJpPMCw3",
                    "display": "Radiant, Alison"
                },
                "participant": [
                    {
                        "period": {
                            "start": "2009-11-06T16:15:00Z",
                            "end": "2009-11-06T16:45:00Z"
                        },
                        "individual": {
                            "display": "EMC CT"
                        }
                    }
                ],
                "period": {
                    "start": "2009-11-06T16:15:00Z",
                    "end": "2009-11-06T16:45:00Z"
                },
                "location": [
                    {
                        "location": {
                            "reference": "Location/e7eNb7sQKvs6peR9.Ie5oau2gEc1rk3BunsIG-cF2mPQ3",
                            "display": "EMC CT Imaging"
                        }
                    }
                ]
            },
            "search": {
                "mode": "match"
            }
        },
        {
            "link": [
                {
                    "relation": "self",
                    "url": "https://appmarket.epic.com/interconnect-amcurprd-oauth/api/FHIR/R4/Encounter/eGY64frGZj-VWEzf8fIbUBw3"
                }
            ],
            "fullUrl": "https://appmarket.epic.com/interconnect-amcurprd-oauth/api/FHIR/R4/Encounter/eGY64frGZj-VWEzf8fIbUBw3",
            "resource": {
                "resourceType": "Encounter",
                "id": "eGY64frGZj-VWEzf8fIbUBw3",
                "identifier": [
                    {
                        "use": "usual",
                        "system": "urn:oid:1.2.840.114350.1.13.0.1.7.3.698084.8",
                        "value": "11982"
                    }
                ],
                "status": "finished",
                "class": {
                    "system": "urn:oid:1.2.840.114350.1.72.1.7.7.10.696784.13260",
                    "code": "13",
                    "display": "Support OP Encounter"
                },
                "type": [
                    {
                        "coding": [
                            {
                                "system": "urn:oid:1.2.840.114350.1.13.0.1.7.10.698084.30",
                                "code": "111",
                                "display": "Orders Only"
                            }
                        ],
                        "text": "Orders Only"
                    }
                ],
                "subject": {
                    "reference": "Patient/e9Bi2yhKnvFU8rsjpJpPMCw3",
                    "display": "Radiant, Alison"
                },
                "period": {
                    "start": "2009-11-06",
                    "end": "2009-11-06"
                },
                "location": [
                    {
                        "location": {
                            "reference": "Location/e4W4rmGe9QzuGm2Dy4NBqVc0KDe6yGld6HW95UuN-Qd03",
                            "display": "EMC Family Medicine"
                        }
                    }
                ]
            },
            "search": {
                "mode": "match"
            }
        },
        {
            "link": [
                {
                    "relation": "self",
                    "url": "https://appmarket.epic.com/interconnect-amcurprd-oauth/api/FHIR/R4/Encounter/ehLBWoW7hVlW704FjTN5Lvg3"
                }
            ],
            "fullUrl": "https://appmarket.epic.com/interconnect-amcurprd-oauth/api/FHIR/R4/Encounter/ehLBWoW7hVlW704FjTN5Lvg3",
            "resource": {
                "resourceType": "Encounter",
                "id": "ehLBWoW7hVlW704FjTN5Lvg3",
                "identifier": [
                    {
                        "use": "usual",
                        "system": "urn:oid:1.2.840.114350.1.13.0.1.7.3.698084.8",
                        "value": "11983"
                    }
                ],
                "status": "in-progress",
                "class": {
                    "system": "urn:oid:1.2.840.114350.1.72.1.7.7.10.696784.13260",
                    "code": "13",
                    "display": "Support OP Encounter"
                },
                "type": [
                    {
                        "coding": [
                            {
                                "system": "urn:oid:1.2.840.114350.1.13.0.1.7.10.698084.30",
                                "code": "117",
                                "display": "Ancillary Orders"
                            }
                        ],
                        "text": "Ancillary Orders"
                    }
                ],
                "subject": {
                    "reference": "Patient/e9Bi2yhKnvFU8rsjpJpPMCw3",
                    "display": "Radiant, Alison"
                },
                "period": {
                    "start": "2009-09-26",
                    "end": "2009-09-26"
                },
                "location": [
                    {
                        "location": {
                            "reference": "Location/e4W4rmGe9QzuGm2Dy4NBqVc0KDe6yGld6HW95UuN-Qd03",
                            "display": "EMC Family Medicine"
                        }
                    }
                ]
            },
            "search": {
                "mode": "match"
            }
        },
        {
            "link": [
                {
                    "relation": "self",
                    "url": "https://appmarket.epic.com/interconnect-amcurprd-oauth/api/FHIR/R4/Encounter/eCamsrLuAWj5jIAxfjEU52w3"
                }
            ],
            "fullUrl": "https://appmarket.epic.com/interconnect-amcurprd-oauth/api/FHIR/R4/Encounter/eCamsrLuAWj5jIAxfjEU52w3",
            "resource": {
                "resourceType": "Encounter",
                "id": "eCamsrLuAWj5jIAxfjEU52w3",
                "identifier": [
                    {
                        "use": "usual",
                        "system": "urn:oid:1.2.840.114350.1.13.0.1.7.3.698084.8",
                        "value": "11985"
                    }
                ],
                "status": "unknown",
                "class": {
                    "system": "urn:oid:1.2.840.114350.1.72.1.7.7.10.696784.13260",
                    "code": "13",
                    "display": "Support OP Encounter"
                },
                "subject": {
                    "reference": "Patient/e9Bi2yhKnvFU8rsjpJpPMCw3",
                    "display": "Radiant, Alison"
                },
                "period": {
                    "start": "2009-08-08",
                    "end": "2009-08-08"
                }
            },
            "search": {
                "mode": "match"
            }
        },
        {
            "link": [
                {
                    "relation": "self",
                    "url": "https://appmarket.epic.com/interconnect-amcurprd-oauth/api/FHIR/R4/Encounter/eZS7kwfxP2pxVzqgTkphcYA3"
                }
            ],
            "fullUrl": "https://appmarket.epic.com/interconnect-amcurprd-oauth/api/FHIR/R4/Encounter/eZS7kwfxP2pxVzqgTkphcYA3",
            "resource": {
                "resourceType": "Encounter",
                "id": "eZS7kwfxP2pxVzqgTkphcYA3",
                "identifier": [
                    {
                        "use": "usual",
                        "system": "urn:oid:1.2.840.114350.1.13.0.1.7.3.698084.8",
                        "value": "11986"
                    }
                ],
                "status": "unknown",
                "class": {
                    "system": "urn:oid:1.2.840.114350.1.72.1.7.7.10.696784.13260",
                    "code": "13",
                    "display": "Support OP Encounter"
                },
                "subject": {
                    "reference": "Patient/e9Bi2yhKnvFU8rsjpJpPMCw3",
                    "display": "Radiant, Alison"
                },
                "period": {
                    "start": "2009-06-26",
                    "end": "2009-06-26"
                }
            },
            "search": {
                "mode": "match"
            }
        },
        {
            "link": [
                {
                    "relation": "self",
                    "url": "https://appmarket.epic.com/interconnect-amcurprd-oauth/api/FHIR/R4/Encounter/eV0yW3ztutXmVYjQcfuy4UA3"
                }
            ],
            "fullUrl": "https://appmarket.epic.com/interconnect-amcurprd-oauth/api/FHIR/R4/Encounter/eV0yW3ztutXmVYjQcfuy4UA3",
            "resource": {
                "resourceType": "Encounter",
                "id": "eV0yW3ztutXmVYjQcfuy4UA3",
                "identifier": [
                    {
                        "use": "usual",
                        "system": "urn:oid:1.2.840.114350.1.13.0.1.7.3.698084.8",
                        "value": "11987"
                    }
                ],
                "status": "unknown",
                "class": {
                    "system": "urn:oid:1.2.840.114350.1.72.1.7.7.10.696784.13260",
                    "code": "13",
                    "display": "Support OP Encounter"
                },
                "subject": {
                    "reference": "Patient/e9Bi2yhKnvFU8rsjpJpPMCw3",
                    "display": "Radiant, Alison"
                },
                "period": {
                    "start": "2009-06-26",
                    "end": "2009-06-26"
                }
            },
            "search": {
                "mode": "match"
            }
        },
        {
            "link": [
                {
                    "relation": "self",
                    "url": "https://appmarket.epic.com/interconnect-amcurprd-oauth/api/FHIR/R4/Encounter/ey4.MVTHA9QctqL2wor.jfA3"
                }
            ],
            "fullUrl": "https://appmarket.epic.com/interconnect-amcurprd-oauth/api/FHIR/R4/Encounter/ey4.MVTHA9QctqL2wor.jfA3",
            "resource": {
                "resourceType": "Encounter",
                "id": "ey4.MVTHA9QctqL2wor.jfA3",
                "identifier": [
                    {
                        "use": "usual",
                        "system": "urn:oid:1.2.840.114350.1.13.0.1.7.3.698084.8",
                        "value": "11988"
                    }
                ],
                "status": "unknown",
                "class": {
                    "system": "urn:oid:1.2.840.114350.1.72.1.7.7.10.696784.13260",
                    "code": "13",
                    "display": "Support OP Encounter"
                },
                "subject": {
                    "reference": "Patient/e9Bi2yhKnvFU8rsjpJpPMCw3",
                    "display": "Radiant, Alison"
                },
                "period": {
                    "start": "2009-05-16",
                    "end": "2009-05-16"
                }
            },
            "search": {
                "mode": "match"
            }
        },
        {
            "link": [
                {
                    "relation": "self",
                    "url": "https://appmarket.epic.com/interconnect-amcurprd-oauth/api/FHIR/R4/Encounter/eY99VXcgKavNcNbpNpebDxA3"
                }
            ],
            "fullUrl": "https://appmarket.epic.com/interconnect-amcurprd-oauth/api/FHIR/R4/Encounter/eY99VXcgKavNcNbpNpebDxA3",
            "resource": {
                "resourceType": "Encounter",
                "id": "eY99VXcgKavNcNbpNpebDxA3",
                "identifier": [
                    {
                        "use": "usual",
                        "system": "urn:oid:1.2.840.114350.1.13.0.1.7.3.698084.8",
                        "value": "11989"
                    }
                ],
                "status": "unknown",
                "class": {
                    "system": "urn:oid:1.2.840.114350.1.72.1.7.7.10.696784.13260",
                    "code": "13",
                    "display": "Support OP Encounter"
                },
                "subject": {
                    "reference": "Patient/e9Bi2yhKnvFU8rsjpJpPMCw3",
                    "display": "Radiant, Alison"
                },
                "period": {
                    "start": "2009-04-16",
                    "end": "2009-04-16"
                }
            },
            "search": {
                "mode": "match"
            }
        },
        {
            "link": [
                {
                    "relation": "self",
                    "url": "https://appmarket.epic.com/interconnect-amcurprd-oauth/api/FHIR/R4/Encounter/eBYJ7YBhkVY4G.dTKuSDklA3"
                }
            ],
            "fullUrl": "https://appmarket.epic.com/interconnect-amcurprd-oauth/api/FHIR/R4/Encounter/eBYJ7YBhkVY4G.dTKuSDklA3",
            "resource": {
                "resourceType": "Encounter",
                "id": "eBYJ7YBhkVY4G.dTKuSDklA3",
                "identifier": [
                    {
                        "use": "usual",
                        "system": "urn:oid:1.2.840.114350.1.13.0.1.7.3.698084.8",
                        "value": "11990"
                    }
                ],
                "status": "unknown",
                "class": {
                    "system": "urn:oid:1.2.840.114350.1.72.1.7.7.10.696784.13260",
                    "code": "13",
                    "display": "Support OP Encounter"
                },
                "subject": {
                    "reference": "Patient/e9Bi2yhKnvFU8rsjpJpPMCw3",
                    "display": "Radiant, Alison"
                },
                "period": {
                    "start": "2008-11-08",
                    "end": "2008-11-08"
                }
            },
            "search": {
                "mode": "match"
            }
        },
        {
            "link": [
                {
                    "relation": "self",
                    "url": "https://appmarket.epic.com/interconnect-amcurprd-oauth/api/FHIR/R4/Encounter/edfVHTrCwH.SEfnR15Rbh4g3"
                }
            ],
            "fullUrl": "https://appmarket.epic.com/interconnect-amcurprd-oauth/api/FHIR/R4/Encounter/edfVHTrCwH.SEfnR15Rbh4g3",
            "resource": {
                "resourceType": "Encounter",
                "id": "edfVHTrCwH.SEfnR15Rbh4g3",
                "identifier": [
                    {
                        "use": "usual",
                        "system": "urn:oid:1.2.840.114350.1.13.0.1.7.3.698084.8",
                        "value": "11991"
                    }
                ],
                "status": "unknown",
                "class": {
                    "system": "urn:oid:1.2.840.114350.1.72.1.7.7.10.696784.13260",
                    "code": "13",
                    "display": "Support OP Encounter"
                },
                "subject": {
                    "reference": "Patient/e9Bi2yhKnvFU8rsjpJpPMCw3",
                    "display": "Radiant, Alison"
                },
                "period": {
                    "start": "2008-11-08",
                    "end": "2008-11-08"
                }
            },
            "search": {
                "mode": "match"
            }
        },
        {
            "link": [
                {
                    "relation": "self",
                    "url": "https://appmarket.epic.com/interconnect-amcurprd-oauth/api/FHIR/R4/Encounter/ew.ZmHwMeh1ufsDW2Hw9dng3"
                }
            ],
            "fullUrl": "https://appmarket.epic.com/interconnect-amcurprd-oauth/api/FHIR/R4/Encounter/ew.ZmHwMeh1ufsDW2Hw9dng3",
            "resource": {
                "resourceType": "Encounter",
                "id": "ew.ZmHwMeh1ufsDW2Hw9dng3",
                "identifier": [
                    {
                        "use": "usual",
                        "system": "urn:oid:1.2.840.114350.1.13.0.1.7.3.698084.8",
                        "value": "11992"
                    }
                ],
                "status": "unknown",
                "class": {
                    "system": "urn:oid:1.2.840.114350.1.72.1.7.7.10.696784.13260",
                    "code": "13",
                    "display": "Support OP Encounter"
                },
                "subject": {
                    "reference": "Patient/e9Bi2yhKnvFU8rsjpJpPMCw3",
                    "display": "Radiant, Alison"
                },
                "period": {
                    "start": "2008-09-28",
                    "end": "2008-09-28"
                }
            },
            "search": {
                "mode": "match"
            }
        },
        {
            "link": [
                {
                    "relation": "self",
                    "url": "https://appmarket.epic.com/interconnect-amcurprd-oauth/api/FHIR/R4/Encounter/e.lF5OY4ddno.qBz2OpgtQQ3"
                }
            ],
            "fullUrl": "https://appmarket.epic.com/interconnect-amcurprd-oauth/api/FHIR/R4/Encounter/e.lF5OY4ddno.qBz2OpgtQQ3",
            "resource": {
                "resourceType": "Encounter",
                "id": "e.lF5OY4ddno.qBz2OpgtQQ3",
                "identifier": [
                    {
                        "use": "usual",
                        "system": "urn:oid:1.2.840.114350.1.13.0.1.7.3.698084.8",
                        "value": "11993"
                    }
                ],
                "status": "unknown",
                "class": {
                    "system": "urn:oid:1.2.840.114350.1.72.1.7.7.10.696784.13260",
                    "code": "13",
                    "display": "Support OP Encounter"
                },
                "subject": {
                    "reference": "Patient/e9Bi2yhKnvFU8rsjpJpPMCw3",
                    "display": "Radiant, Alison"
                },
                "period": {
                    "start": "2008-08-29",
                    "end": "2008-08-29"
                }
            },
            "search": {
                "mode": "match"
            }
        },
        {
            "link": [
                {
                    "relation": "self",
                    "url": "https://appmarket.epic.com/interconnect-amcurprd-oauth/api/FHIR/R4/Encounter/e6C5HJMIIuOJBlIJQGv2hBQ3"
                }
            ],
            "fullUrl": "https://appmarket.epic.com/interconnect-amcurprd-oauth/api/FHIR/R4/Encounter/e6C5HJMIIuOJBlIJQGv2hBQ3",
            "resource": {
                "resourceType": "Encounter",
                "id": "e6C5HJMIIuOJBlIJQGv2hBQ3",
                "extension": [
                    {
                        "valueBoolean": false,
                        "url": "http://open.epic.com/FHIR/StructureDefinition/extension/accidentrelated"
                    }
                ],
                "identifier": [
                    {
                        "use": "usual",
                        "system": "urn:oid:1.2.840.114350.1.13.0.1.7.3.698084.8",
                        "value": "11973"
                    }
                ],
                "status": "finished",
                "class": {
                    "system": "urn:oid:1.2.840.114350.1.72.1.7.7.10.696784.13260",
                    "code": "6",
                    "display": "Discharge"
                },
                "type": [
                    {
                        "coding": [
                            {
                                "system": "urn:oid:1.2.840.114350.1.13.0.1.7.10.698084.10110",
                                "code": "102",
                                "display": "Outpatient"
                            }
                        ],
                        "text": "Outpatient"
                    },
                    {
                        "coding": [
                            {
                                "system": "urn:oid:1.2.840.114350.1.13.0.1.7.10.698084.30",
                                "code": "3",
                                "display": "Hospital Encounter"
                            }
                        ],
                        "text": "Hospital Encounter"
                    },
                    {
                        "coding": [
                            {
                                "system": "urn:oid:1.2.840.114350.1.13.0.1.7.10.698084.18875",
                                "code": "3",
                                "display": "Elective"
                            }
                        ],
                        "text": "Elective"
                    }
                ],
                "serviceType": {
                    "coding": [
                        {
                            "system": "urn:oid:1.2.840.114350.1.13.0.1.7.10.698084.18886",
                            "code": "146",
                            "display": "Vascular Surgery"
                        }
                    ],
                    "text": "Vascular Surgery"
                },
                "subject": {
                    "reference": "Patient/e9Bi2yhKnvFU8rsjpJpPMCw3",
                    "display": "Radiant, Alison"
                },
                "participant": [
                    {
                        "type": [
                            {
                                "coding": [
                                    {
                                        "system": "http://hl7.org/fhir/v3/ParticipationType",
                                        "code": "ADM",
                                        "display": "admitter"
                                    }
                                ],
                                "text": "admitter"
                            }
                        ],
                        "individual": {
                            "reference": "Practitioner/ekK9AsfvYqLnReaTbTwFKWg3",
                            "type": "Practitioner"
                        }
                    },
                    {
                        "type": [
                            {
                                "coding": [
                                    {
                                        "system": "http://hl7.org/fhir/v3/ParticipationType",
                                        "code": "ATND",
                                        "display": "attender"
                                    }
                                ],
                                "text": "attender"
                            }
                        ],
                        "period": {
                            "start": "2011-04-16T16:26:54Z",
                            "end": "2011-06-02T13:00:00Z"
                        },
                        "individual": {
                            "reference": "Practitioner/ekK9AsfvYqLnReaTbTwFKWg3",
                            "type": "Practitioner"
                        }
                    }
                ],
                "period": {
                    "start": "2011-04-16T16:26:54Z",
                    "end": "2011-06-02T13:00:00Z"
                },
                "account": [
                    {
                        "identifier": {
                            "system": "urn:oid:1.2.840.114350.1.13.0.1.7.2.726582",
                            "value": "758"
                        },
                        "display": "RADIANT,ALISON"
                    }
                ],
                "hospitalization": {
                    "extension": [
                        {
                            "valueDateTime": "2011-04-16T16:26:54Z",
                            "url": "http://open.epic.com/FHIR/StructureDefinition/extension/observation-datetime"
                        }
                    ],
                    "admitSource": {
                        "coding": [
                            {
                                "system": "urn:oid:1.2.840.114350.1.13.0.1.7.10.698084.10310",
                                "code": "2",
                                "display": "Physician or Clinic Office"
                            }
                        ],
                        "text": "Physician or Clinic Office"
                    },
                    "dischargeDisposition": {
                        "coding": [
                            {
                                "system": "urn:oid:1.2.840.114350.1.13.0.1.7.10.698084.18888",
                                "code": "1",
                                "display": "Home or Self Care"
                            }
                        ],
                        "text": "Home or Self Care"
                    }
                },
                "location": [
                    {
                        "location": {
                            "reference": "Location/eO-3e71xq6A5Xp7leBMrw5X-8sAl6UHIF91p7maQKFdU3",
                            "display": "EMH Medical Surgical"
                        },
                        "period": {
                            "start": "2011-04-16T16:26:00Z",
                            "end": "2011-04-16T16:27:00Z"
                        }
                    },
                    {
                        "location": {
                            "reference": "Location/e96ftQhMhgPbIeo4ZUKblbfhGFtoiEN.gDnEWtXGebGE3",
                            "display": "EMH Pre-operation"
                        },
                        "period": {
                            "start": "2011-04-16T16:27:00Z",
                            "end": "2011-04-16T16:30:00Z"
                        }
                    },
                    {
                        "location": {
                            "reference": "Location/ebMDkIoNMQln3iIzo3nwSkgNSuWNrpYgObEUVctbTF5s3",
                            "display": "EMH IR Imaging"
                        },
                        "period": {
                            "start": "2011-04-16T16:30:00Z",
                            "end": "2011-04-17T13:00:00Z"
                        }
                    },
                    {
                        "location": {
                            "reference": "Location/ezuGIy7r0eGjbSROdnPqLGrq77x5UKuC8QTsUskre3Iw3",
                            "display": "EMH Intensive Care"
                        },
                        "period": {
                            "start": "2011-04-17T13:00:00Z",
                            "end": "2011-06-02T13:00:00Z"
                        }
                    },
                    {
                        "location": {
                            "reference": "Location/ezuGIy7r0eGjbSROdnPqLGrq77x5UKuC8QTsUskre3Iw3",
                            "display": "EMH Intensive Care"
                        }
                    },
                    {
                        "location": {
                            "reference": "Location/eQSOrLdbVrMRc68KBcTBG4A3",
                            "display": "Epic Hospital System"
                        }
                    },
                    {
                        "location": {
                            "reference": "Location/eNcPUAitRz18tkoTnkzRWng3",
                            "display": "104"
                        },
                        "physicalType": {
                            "coding": [
                                {
                                    "system": "http://terminology.hl7.org/CodeSystem/location-physical-type",
                                    "code": "ro",
                                    "display": "Room"
                                }
                            ],
                            "text": "Room"
                        }
                    },
                    {
                        "location": {
                            "identifier": {
                                "system": "urn:oid:1.2.840.114350.1.13.0.1.7.2.666968",
                                "value": "183"
                            },
                            "display": "104-01"
                        },
                        "physicalType": {
                            "coding": [
                                {
                                    "system": "http://terminology.hl7.org/CodeSystem/location-physical-type",
                                    "code": "bd",
                                    "display": "Bed"
                                }
                            ],
                            "text": "Bed"
                        }
                    }
                ]
            },
            "search": {
                "mode": "include"
            }
        },
        {
            "link": [
                {
                    "relation": "self",
                    "url": "https://appmarket.epic.com/interconnect-amcurprd-oauth/api/FHIR/R4/Patient/e9Bi2yhKnvFU8rsjpJpPMCw3"
                }
            ],
            "fullUrl": "https://appmarket.epic.com/interconnect-amcurprd-oauth/api/FHIR/R4/Patient/e9Bi2yhKnvFU8rsjpJpPMCw3",
            "resource": {
                "resourceType": "Patient",
                "id": "e9Bi2yhKnvFU8rsjpJpPMCw3",
                "extension": [
                    {
                        "extension": [
                            {
                                "valueCoding": {
                                    "system": "urn:oid:2.16.840.1.113883.6.238",
                                    "code": "2106-3",
                                    "display": "White"
                                },
                                "url": "ombCategory"
                            },
                            {
                                "valueString": "White",
                                "url": "text"
                            }
                        ],
                        "url": "http://hl7.org/fhir/us/core/StructureDefinition/us-core-race"
                    },
                    {
                        "extension": [
                            {
                                "valueCoding": {
                                    "system": "urn:oid:2.16.840.1.113883.6.238",
                                    "code": "2186-5",
                                    "display": "Not Hispanic or Latino"
                                },
                                "url": "ombCategory"
                            },
                            {
                                "valueString": "Not Hispanic or Latino",
                                "url": "text"
                            }
                        ],
                        "url": "http://hl7.org/fhir/us/core/StructureDefinition/us-core-ethnicity"
                    },
                    {
                        "valueCodeableConcept": {
                            "coding": [
                                {
                                    "system": "urn:oid:1.2.840.114350.1.13.0.1.7.10.698084.130.657370.19999000",
                                    "code": "female",
                                    "display": "female"
                                }
                            ]
                        },
                        "url": "http://open.epic.com/FHIR/StructureDefinition/extension/legal-sex"
                    },
                    {
                        "valueCodeableConcept": {
                            "coding": [
                                {
                                    "system": "urn:oid:1.2.840.114350.1.13.0.1.7.10.698084.130.657370.19999000",
                                    "code": "female",
                                    "display": "female"
                                }
                            ]
                        },
                        "url": "http://open.epic.com/FHIR/StructureDefinition/extension/sex-for-clinical-use"
                    },
                    {
                        "valueCode": "F",
                        "url": "http://hl7.org/fhir/us/core/StructureDefinition/us-core-birthsex"
                    }
                ],
                "identifier": [
                    {
                        "use": "usual",
                        "system": "urn:oid:2.16.840.1.113883.4.1",
                        "value": "755-90-5153"
                    },
                    {
                        "use": "usual",
                        "type": {
                            "text": "CEID"
                        },
                        "system": "urn:epic:apporchard.curprod",
                        "value": "AO18LXG7GKWFTK5"
                    },
                    {
                        "use": "usual",
                        "type": {
                            "text": "EPIC"
                        },
                        "system": "urn:oid:1.2.840.114350.1.1",
                        "value": "E2744"
                    },
                    {
                        "use": "usual",
                        "type": {
                            "text": "EXTERNAL"
                        },
                        "system": "urn:oid:1.2.840.114350.1.13.0.1.7.2.698084",
                        "value": "Z5121"
                    },
                    {
                        "use": "usual",
                        "type": {
                            "text": "FHIR"
                        },
                        "system": "http://open.epic.com/FHIR/StructureDefinition/patient-dstu2-fhir-id",
                        "value": "Tyggi1JtYvquwcbxHoEpOGnnw2QQUH1ydmOxEfHeStl4B"
                    },
                    {
                        "use": "usual",
                        "type": {
                            "text": "FHIR STU3"
                        },
                        "system": "http://open.epic.com/FHIR/StructureDefinition/patient-fhir-id",
                        "value": "e9Bi2yhKnvFU8rsjpJpPMCw3"
                    },
                    {
                        "use": "usual",
                        "type": {
                            "text": "INTERNAL"
                        },
                        "system": "urn:oid:1.2.840.114350.1.13.0.1.7.2.698084",
                        "value": "     Z5121"
                    },
                    {
                        "use": "usual",
                        "type": {
                            "text": "MRN"
                        },
                        "system": "urn:oid:1.2.840.114350.1.13.0.1.7.5.737384.14",
                        "value": "202510"
                    },
                    {
                        "use": "usual",
                        "type": {
                            "text": "MYCHARTLOGIN"
                        },
                        "system": "urn:oid:1.2.840.114350.1.13.0.1.7.3.878082.110",
                        "value": "RADALISON"
                    },
                    {
                        "use": "usual",
                        "type": {
                            "text": "WPRINTERNAL"
                        },
                        "system": "urn:oid:1.2.840.114350.1.13.0.1.7.2.878082",
                        "value": "551"
                    }
                ],
                "active": true,
                "name": [
                    {
                        "use": "official",
                        "text": "Alison Radiant",
                        "family": "Radiant",
                        "given": [
                            "Alison"
                        ]
                    },
                    {
                        "use": "usual",
                        "text": "Alison Radiant",
                        "family": "Radiant",
                        "given": [
                            "Alison"
                        ]
                    }
                ],
                "telecom": [
                    {
                        "system": "phone",
                        "value": "608-251-9999",
                        "use": "home"
                    }
                ],
                "gender": "female",
                "birthDate": "1964-08-26",
                "deceasedBoolean": false,
                "address": [
                    {
                        "use": "home",
                        "line": [
                            "1818 University Ave,"
                        ],
                        "city": "MADISON",
                        "district": "DANE",
                        "state": "WI",
                        "postalCode": "53703",
                        "country": "US"
                    }
                ],
                "maritalStatus": {
                    "text": "Married"
                },
                "contact": [
                    {
                        "relationship": [
                            {
                                "coding": [
                                    {
                                        "system": "http://terminology.hl7.org/CodeSystem/v2-0131",
                                        "code": "C",
                                        "display": "Emergency Contact"
                                    },
                                    {
                                        "system": "urn:oid:1.2.840.114350.1.13.0.1.7.4.827665.1000",
                                        "code": "17",
                                        "display": "Spouse"
                                    }
                                ],
                                "text": "Spouse"
                            }
                        ],
                        "name": {
                            "use": "usual",
                            "text": "Radvalidate, John"
                        },
                        "telecom": [
                            {
                                "system": "phone",
                                "value": "608-251-9999",
                                "use": "home"
                            }
                        ]
                    }
                ],
                "managingOrganization": {
                    "reference": "Organization/enRyWnSP963FYDpoks4NHOA3",
                    "display": "Epic Hospital System"
                }
            },
            "search": {
                "mode": "include"
            }
        }
    ]
}