{
    "resourceType": "Bundle",
    "type": "searchset",
    "total": 24,
    "link": [
        {
            "relation": "self",
            "url": "https://appmarket.epic.com/interconnect-amcurprd-oauth/api/FHIR/R4/Encounter?_include=Encounter:condition&_include=Encounter:episodeOfCare&_include=Encounter:partOf&_include=Encounter:subject&_format=json&patient=eovSKnwDlsv-8MsEzCJO3BA3"
        }
    ],
    "entry": [
        {
            "link": [
                {
                    "relation": "self",
                    "url": "https://appmarket.epic.com/interconnect-amcurprd-oauth/api/FHIR/R4/Encounter/ecyEQ.8IuamJyUHShUKRjpA3"
                }
            ],
            "fullUrl": "https://appmarket.epic.com/interconnect-amcurprd-oauth/api/FHIR/R4/Encounter/ecyEQ.8IuamJyUHShUKRjpA3",
            "resource": {
                "resourceType": "Encounter",
                "id": "ecyEQ.8IuamJyUHShUKRjpA3",
                "identifier": [
                    {
                        "use": "usual",
                        "system": "urn:oid:1.2.840.114350.1.13.0.1.7.3.698084.8",
                        "value": "38039"
                    }
                ],
                "status": "finished",
                "class": {
                    "system": "urn:oid:1.2.840.114350.1.72.1.7.7.10.696784.13260",
                    "code": "13",
                    "display": "Support OP Encounter"
                },
                "type": [
                    {
                        "coding": [
                            {
                                "system": "urn:oid:1.2.840.114350.1.13.0.1.7.10.698084.30",
                                "code": "101",
                                "display": "Office Visit"
                            }
                        ],
                        "text": "Office Visit"
                    }
                ],
                "subject": {
                    "reference": "Patient/eovSKnwDlsv-8MsEzCJO3BA3",
                    "display": "Icu, Raj"
                },
                "participant": [
                    {
                        "type": [
                            {
                                "text": "losAuthorizingPhysician"
                            }
                        ],
                        "individual": {
                            "reference": "Practitioner/e2qocqJm-DdjHLS0Not4qjA3",
                            "type": "Practitioner",
                            "display": "Historical Provider, MD"
                        }
                    }
                ],
                "period": {
                    "start": "2022-02-03",
                    "end": "2022-02-03"
                },
                "location": [
                    {
                        "location": {
                            "reference": "Location/eHJr0pLdXDgxtrtd3uX1su-5GfglbmVf9COUEJS0m9rk3",
                            "display": "EMC Retail Clinic"
                        }
                    }
                ]
            },
            "search": {
                "mode": "match"
            }
        },
        {
            "link": [
                {
                    "relation": "self",
                    "url": "https://appmarket.epic.com/interconnect-amcurprd-oauth/api/FHIR/R4/Encounter/ei.sPgGlYzcfuCDuWuKBKXg3"
                }
            ],
            "fullUrl": "https://appmarket.epic.com/interconnect-amcurprd-oauth/api/FHIR/R4/Encounter/ei.sPgGlYzcfuCDuWuKBKXg3",
            "resource": {
                "resourceType": "Encounter",
                "id": "ei.sPgGlYzcfuCDuWuKBKXg3",
                "identifier": [
                    {
                        "use": "usual",
                        "system": "urn:oid:1.2.840.114350.1.13.0.1.7.3.698084.8",
                        "value": "38038"
                    }
                ],
                "status": "in-progress",
                "class": {
                    "system": "urn:oid:1.2.840.114350.1.72.1.7.7.10.696784.13260",
                    "code": "13",
                    "display": "Support OP Encounter"
                },
                "type": [
                    {
                        "coding": [
                            {
                                "system": "urn:oid:1.2.840.114350.1.13.0.1.7.10.698084.30",
                                "code": "106",
                                "display": "Hospital"
                            }
                        ],
                        "text": "Hospital"
                    }
                ],
                "subject": {
                    "reference": "Patient/eovSKnwDlsv-8MsEzCJO3BA3",
                    "display": "Icu, Raj"
                },
                "participant": [
                    {
                        "individual": {
                            "reference": "Practitioner/eM5CWtq15N0WJeuCet5bJlQ3",
                            "type": "Practitioner",
                            "display": "Physician Family Medicine, MD"
                        }
                    }
                ],
                "period": {
                    "start": "2022-02-03",
                    "end": "2022-02-03"
                },
                "location": [
                    {
                        "location": {
                            "reference": "Location/ezuGIy7r0eGjbSROdnPqLGrq77x5UKuC8QTsUskre3Iw3",
                            "display": "EMH Intensive Care"
                        }
                    }
                ]
            },
            "search": {
                "mode": "match"
            }
        },
        {
            "link": [
                {
                    "relation": "self",
                    "url": "https://appmarket.epic.com/interconnect-amcurprd-oauth/api/FHIR/R4/Encounter/eB6mgO842LtTSxToUamnMjg3"
                }
            ],
            "fullUrl": "https://appmarket.epic.com/interconnect-amcurprd-oauth/api/FHIR/R4/Encounter/eB6mgO842LtTSxToUamnMjg3",
            "resource": {
                "resourceType": "Encounter",
                "id": "eB6mgO842LtTSxToUamnMjg3",
                "identifier": [
                    {
                        "use": "usual",
                        "system": "urn:oid:1.2.840.114350.1.13.0.1.7.3.698084.8",
                        "value": "38263"
                    }
                ],
                "status": "finished",
                "class": {
                    "system": "urn:oid:1.2.840.114350.1.72.1.7.7.10.696784.13260",
                    "code": "13",
                    "display": "Support OP Encounter"
                },
                "type": [
                    {
                        "coding": [
                            {
                                "system": "urn:oid:1.2.840.114350.1.13.0.1.7.10.698084.30",
                                "code": "101",
                                "display": "Office Visit"
                            }
                        ],
                        "text": "Office Visit"
                    }
                ],
                "subject": {
                    "reference": "Patient/eovSKnwDlsv-8MsEzCJO3BA3",
                    "display": "Icu, Raj"
                },
                "participant": [
                    {
                        "type": [
                            {
                                "text": "losAuthorizingPhysician"
                            }
                        ],
                        "individual": {
                            "reference": "Practitioner/ef9TegF2nfECi-0Skirbvpg3",
                            "type": "Practitioner",
                            "display": "Physician One Cardiology, MD"
                        }
                    }
                ],
                "period": {
                    "start": "2021-12-28",
                    "end": "2021-12-28"
                },
                "location": [
                    {
                        "location": {
                            "reference": "Location/e4W4rmGe9QzuGm2Dy4NBqVc0KDe6yGld6HW95UuN-Qd03",
                            "display": "EMC Family Medicine"
                        }
                    }
                ]
            },
            "search": {
                "mode": "match"
            }
        },
        {
            "link": [
                {
                    "relation": "self",
                    "url": "https://appmarket.epic.com/interconnect-amcurprd-oauth/api/FHIR/R4/Encounter/e1q61mIQRMAZE9YiDcxRj1Q3"
                }
            ],
            "fullUrl": "https://appmarket.epic.com/interconnect-amcurprd-oauth/api/FHIR/R4/Encounter/e1q61mIQRMAZE9YiDcxRj1Q3",
            "resource": {
                "resourceType": "Encounter",
                "id": "e1q61mIQRMAZE9YiDcxRj1Q3",
                "identifier": [
                    {
                        "use": "usual",
                        "system": "urn:oid:1.2.840.114350.1.13.0.1.7.3.698084.8",
                        "value": "38264"
                    }
                ],
                "status": "finished",
                "class": {
                    "system": "urn:oid:1.2.840.114350.1.72.1.7.7.10.696784.13260",
                    "code": "13",
                    "display": "Support OP Encounter"
                },
                "type": [
                    {
                        "coding": [
                            {
                                "system": "urn:oid:1.2.840.114350.1.13.0.1.7.10.698084.30",
                                "code": "101",
                                "display": "Office Visit"
                            }
                        ],
                        "text": "Office Visit"
                    }
                ],
                "subject": {
                    "reference": "Patient/eovSKnwDlsv-8MsEzCJO3BA3",
                    "display": "Icu, Raj"
                },
                "participant": [
                    {
                        "type": [
                            {
                                "text": "losAuthorizingPhysician"
                            }
                        ],
                        "individual": {
                            "reference": "Practitioner/ef9TegF2nfECi-0Skirbvpg3",
                            "type": "Practitioner",
                            "display": "Physician One Cardiology, MD"
                        }
                    }
                ],
                "period": {
                    "start": "2021-12-20",
                    "end": "2021-12-20"
                },
                "location": [
                    {
                        "location": {
                            "reference": "Location/e4W4rmGe9QzuGm2Dy4NBqVc0KDe6yGld6HW95UuN-Qd03",
                            "display": "EMC Family Medicine"
                        }
                    }
                ]
            },
            "search": {
                "mode": "match"
            }
        },
        {
            "link": [
                {
                    "relation": "self",
                    "url": "https://appmarket.epic.com/interconnect-amcurprd-oauth/api/FHIR/R4/Encounter/eWQj.sfhO9YoVffsMUZg3zw3"
                }
            ],
            "fullUrl": "https://appmarket.epic.com/interconnect-amcurprd-oauth/api/FHIR/R4/Encounter/eWQj.sfhO9YoVffsMUZg3zw3",
            "resource": {
                "resourceType": "Encounter",
                "id": "eWQj.sfhO9YoVffsMUZg3zw3",
                "identifier": [
                    {
                        "use": "usual",
                        "system": "urn:oid:1.2.840.114350.1.13.0.1.7.3.698084.8",
                        "value": "8056"
                    }
                ],
                "status": "unknown",
                "class": {
                    "system": "urn:oid:1.2.840.114350.1.72.1.7.7.10.696784.13260",
                    "code": "13",
                    "display": "Support OP Encounter"
                },
                "type": [
                    {
                        "coding": [
                            {
                                "system": "urn:oid:1.2.840.114350.1.13.0.1.7.10.698084.10110",
                                "code": "101",
                                "display": "Inpatient"
                            }
                        ],
                        "text": "Inpatient"
                    },
                    {
                        "coding": [
                            {
                                "system": "urn:oid:1.2.840.114350.1.13.0.1.7.10.698084.30",
                                "code": "115",
                                "display": "Resolute Professional Billing Hospital Prof Fee"
                            }
                        ],
                        "text": "Resolute Professional Billing Hospital Prof Fee"
                    }
                ],
                "serviceType": {
                    "coding": [
                        {
                            "system": "urn:oid:1.2.840.114350.1.13.0.1.7.10.698084.18886",
                            "code": "103",
                            "display": "Cardiac ICU"
                        }
                    ],
                    "text": "Cardiac ICU"
                },
                "subject": {
                    "reference": "Patient/eovSKnwDlsv-8MsEzCJO3BA3",
                    "display": "Icu, Raj"
                },
                "participant": [
                    {
                        "type": [
                            {
                                "coding": [
                                    {
                                        "system": "http://hl7.org/fhir/v3/ParticipationType",
                                        "code": "ADM",
                                        "display": "admitter"
                                    }
                                ],
                                "text": "admitter"
                            }
                        ],
                        "individual": {
                            "reference": "Practitioner/e9s-IdXQOUVywHOVoisd6xQ3",
                            "type": "Practitioner",
                            "display": "Attending Physician Inpatient, MD"
                        }
                    },
                    {
                        "extension": [
                            {
                                "valueCodeableConcept": {
                                    "coding": [
                                        {
                                            "system": "urn:oid:1.2.840.114350.1.13.0.1.7.4.698084.18832",
                                            "code": "17",
                                            "display": "Internal Medicine"
                                        }
                                    ],
                                    "text": "Internal Medicine"
                                },
                                "url": "http://open.epic.com/FHIR/StructureDefinition/extension/specialty"
                            }
                        ],
                        "period": {
                            "start": "2015-02-19T06:00:00Z",
                            "end": "2015-02-19T06:00:00Z"
                        },
                        "individual": {
                            "reference": "Practitioner/e9s-IdXQOUVywHOVoisd6xQ3",
                            "type": "Practitioner",
                            "display": "Attending Physician Inpatient, MD"
                        }
                    }
                ],
                "period": {
                    "start": "2015-02-19T06:00:00Z"
                },
                "location": [
                    {
                        "location": {
                            "reference": "Location/erz8XDoDnZ2fDMtQu36oW6m7uphpmXI3drRQrBFH20fE3",
                            "display": "EMH Cardiac Intensive Care"
                        }
                    },
                    {
                        "location": {
                            "reference": "Location/erz8XDoDnZ2fDMtQu36oW6m7uphpmXI3drRQrBFH20fE3",
                            "display": "EMH Cardiac Intensive Care"
                        }
                    },
                    {
                        "location": {
                            "reference": "Location/eVsDow6Ul6zXDbwegAkWmhA3",
                            "display": "414"
                        },
                        "physicalType": {
                            "coding": [
                                {
                                    "system": "http://terminology.hl7.org/CodeSystem/location-physical-type",
                                    "code": "ro",
                                    "display": "Room"
                                }
                            ],
                            "text": "Room"
                        }
                    }
                ]
            },
            "search": {
                "mode": "match"
            }
        },
        {
            "link": [
                {
                    "relation": "self",
                    "url": "https://appmarket.epic.com/interconnect-amcurprd-oauth/api/FHIR/R4/Encounter/eeVXp9HwWKBIxXEavPj-jsA3"
                }
            ],
            "fullUrl": "https://appmarket.epic.com/interconnect-amcurprd-oauth/api/FHIR/R4/Encounter/eeVXp9HwWKBIxXEavPj-jsA3",
            "resource": {
                "resourceType": "Encounter",
                "id": "eeVXp9HwWKBIxXEavPj-jsA3",
                "extension": [
                    {
                        "valueBoolean": false,
                        "url": "http://open.epic.com/FHIR/StructureDefinition/extension/accidentrelated"
                    }
                ],
                "identifier": [
                    {
                        "use": "usual",
                        "system": "urn:oid:1.2.840.114350.1.13.0.1.7.3.698084.8",
                        "value": "8057"
                    }
                ],
                "status": "in-progress",
                "class": {
                    "system": "urn:oid:1.2.840.114350.1.72.1.7.7.10.696784.13260",
                    "code": "3",
                    "display": "Admission"
                },
                "type": [
                    {
                        "coding": [
                            {
                                "system": "urn:oid:1.2.840.114350.1.13.0.1.7.10.698084.10110",
                                "code": "101",
                                "display": "Inpatient"
                            }
                        ],
                        "text": "Inpatient"
                    },
                    {
                        "coding": [
                            {
                                "system": "urn:oid:1.2.840.114350.1.13.0.1.7.10.698084.30",
                                "code": "3",
                                "display": "Hospital Encounter"
                            }
                        ],
                        "text": "Hospital Encounter"
                    },
                    {
                        "coding": [
                            {
                                "system": "urn:oid:1.2.840.114350.1.13.0.1.7.10.698084.18875",
                                "code": "2",
                                "display": "Urgent"
                            }
                        ],
                        "text": "Urgent"
                    }
                ],
                "serviceType": {
                    "coding": [
                        {
                            "system": "urn:oid:1.2.840.114350.1.13.0.1.7.10.698084.18886",
                            "code": "103",
                            "display": "Cardiac ICU"
                        }
                    ],
                    "text": "Cardiac ICU"
                },
                "subject": {
                    "reference": "Patient/eovSKnwDlsv-8MsEzCJO3BA3",
                    "display": "Icu, Raj"
                },
                "episodeOfCare": [
                    {
                        "reference": "EpisodeOfCare/eaVXtQPRLXkFeCdqw6T3uRQ3",
                        "type": "EpisodeOfCare",
                        "display": "Ep1"
                    }
                ],
                "participant": [
                    {
                        "type": [
                            {
                                "coding": [
                                    {
                                        "system": "http://hl7.org/fhir/v3/ParticipationType",
                                        "code": "ADM",
                                        "display": "admitter"
                                    }
                                ],
                                "text": "admitter"
                            }
                        ],
                        "individual": {
                            "reference": "Practitioner/e9s-IdXQOUVywHOVoisd6xQ3",
                            "type": "Practitioner",
                            "display": "Attending Physician Inpatient, MD"
                        }
                    },
                    {
                        "type": [
                            {
                                "coding": [
                                    {
                                        "system": "http://hl7.org/fhir/v3/ParticipationType",
                                        "code": "ATND",
                                        "display": "attender"
                                    }
                                ],
                                "text": "attender"
                            }
                        ],
                        "period": {
                            "start": "2014-11-06T14:35:00Z"
                        },
                        "individual": {
                            "reference": "Practitioner/e9s-IdXQOUVywHOVoisd6xQ3",
                            "type": "Practitioner",
                            "display": "Attending Physician Inpatient, MD"
                        }
                    },
                    {
                        "extension": [
                            {
                                "valueCodeableConcept": {
                                    "coding": [
                                        {
                                            "system": "urn:oid:1.2.840.114350.1.13.0.1.7.4.698084.18832",
                                            "code": "21",
                                            "display": "Nutrition"
                                        }
                                    ],
                                    "text": "Nutrition"
                                },
                                "url": "http://open.epic.com/FHIR/StructureDefinition/extension/specialty"
                            }
                        ],
                        "type": [
                            {
                                "coding": [
                                    {
                                        "system": "urn:oid:1.2.840.114350.1.13.0.1.7.10.698084.18869",
                                        "code": "Dietitian",
                                        "display": "Dietitian"
                                    }
                                ],
                                "text": "Dietitian"
                            }
                        ],
                        "period": {
                            "start": "2021-11-04T18:26:50Z",
                            "end": "2021-11-05T08:26:00Z"
                        },
                        "individual": {
                            "reference": "Practitioner/eMrXAuxP1T8WDXTauxeih8A3",
                            "type": "Practitioner",
                            "display": "Nutrition Inpatient, RD"
                        }
                    }
                ],
                "period": {
                    "start": "2014-11-06T14:35:00Z"
                },
                "diagnosis": [
                    {
                        "condition": {
                            "reference": "Condition/eqrR1BMfXhGmimr8OUK7PbA3",
                            "display": "Aspiration pneumonia (CMS/HCC)"
                        }
                    }
                ],
                "account": [
                    {
                        "identifier": {
                            "system": "urn:oid:1.2.840.114350.1.13.0.1.7.2.726582",
                            "value": "613"
                        },
                        "display": "ICU,RAJ"
                    }
                ],
                "hospitalization": {
                    "extension": [
                        {
                            "valueDateTime": "2014-11-06T14:35:00Z",
                            "url": "http://open.epic.com/FHIR/StructureDefinition/extension/ip-admit-datetime"
                        }
                    ],
                    "admitSource": {
                        "coding": [
                            {
                                "system": "urn:oid:1.2.840.114350.1.13.0.1.7.10.698084.10310",
                                "code": "2",
                                "display": "Physician or Clinic Office"
                            }
                        ],
                        "text": "Physician or Clinic Office"
                    }
                },
                "location": [
                    {
                        "location": {
                            "reference": "Location/ezuGIy7r0eGjbSROdnPqLGrq77x5UKuC8QTsUskre3Iw3",
                            "display": "EMH Intensive Care"
                        },
                        "period": {
                            "start": "2014-11-06T14:35:00Z"
                        }
                    },
                    {
                        "location": {
                            "reference": "Location/ezuGIy7r0eGjbSROdnPqLGrq77x5UKuC8QTsUskre3Iw3",
                            "display": "EMH Intensive Care"
                        }
                    },
                    {
                        "location": {
                            "reference": "Location/eQSOrLdbVrMRc68KBcTBG4A3",
                            "display": "Epic Hospital System"
                        }
                    },
                    {
                        "location": {
                            "reference": "Location/e-lh3bDBTPgEgqOqJaa5v4A3",
                            "display": "ICU"
                        },
                        "physicalType": {
                            "coding": [
                                {
                                    "system": "http://terminology.hl7.org/CodeSystem/location-physical-type",
                                    "code": "ro",
                                    "display": "Room"
                                }
                            ],
                            "text": "Room"
                        }
                    },
                    {
                        "location": {
                            "identifier": {
                                "system": "urn:oid:1.2.840.114350.1.13.0.1.7.2.666968",
                                "value": "941"
                            },
                            "display": "ICU"
                        },
                        "physicalType": {
                            "coding": [
                                {
                                    "system": "http://terminology.hl7.org/CodeSystem/location-physical-type",
                                    "code": "bd",
                                    "display": "Bed"
                                }
                            ],
                            "text": "Bed"
                        }
                    }
                ]
            },
            "search": {
                "mode": "match"
            }
        },
        {
            "link": [
                {
                    "relation": "self",
                    "url": "https://appmarket.epic.com/interconnect-amcurprd-oauth/api/FHIR/R4/Encounter/eSMMpcc6vKRpjLRny1JggEQ3"
                }
            ],
            "fullUrl": "https://appmarket.epic.com/interconnect-amcurprd-oauth/api/FHIR/R4/Encounter/eSMMpcc6vKRpjLRny1JggEQ3",
            "resource": {
                "resourceType": "Encounter",
                "id": "eSMMpcc6vKRpjLRny1JggEQ3",
                "identifier": [
                    {
                        "use": "usual",
                        "system": "urn:oid:1.2.840.114350.1.13.0.1.7.3.698084.8",
                        "value": "8058"
                    }
                ],
                "status": "unknown",
                "class": {
                    "system": "urn:oid:1.2.840.114350.1.72.1.7.7.10.696784.13260",
                    "code": "1",
                    "display": "Surgery Case"
                },
                "type": [
                    {
                        "coding": [
                            {
                                "system": "urn:oid:1.2.840.114350.1.13.0.1.7.10.698084.30",
                                "code": "51",
                                "display": "Surgery"
                            }
                        ],
                        "text": "Surgery"
                    }
                ],
                "subject": {
                    "reference": "Patient/eovSKnwDlsv-8MsEzCJO3BA3",
                    "display": "Icu, Raj"
                },
                "participant": [
                    {
                        "type": [
                            {
                                "coding": [
                                    {
                                        "system": "http://hl7.org/fhir/v3/ParticipationType",
                                        "code": "REF",
                                        "display": "referrer"
                                    }
                                ],
                                "text": "referrer"
                            }
                        ],
                        "individual": {
                            "reference": "Practitioner/eM5CWtq15N0WJeuCet5bJlQ3",
                            "type": "Practitioner",
                            "display": "Physician Family Medicine, MD"
                        }
                    },
                    {
                        "individual": {
                            "reference": "Practitioner/eM5CWtq15N0WJeuCet5bJlQ3",
                            "type": "Practitioner",
                            "display": "Physician Family Medicine, MD"
                        }
                    }
                ],
                "period": {
                    "start": "2015-02-11",
                    "end": "2015-02-11"
                },
                "location": [
                    {
                        "location": {
                            "reference": "Location/efR3SIdpRKF9BFBM5qakt9F5X1mWxjiAGu2hNTKbqOdI3",
                            "display": "EMH Operating Room"
                        }
                    }
                ]
            },
            "search": {
                "mode": "match"
            }
        },
        {
            "link": [
                {
                    "relation": "self",
                    "url": "https://appmarket.epic.com/interconnect-amcurprd-oauth/api/FHIR/R4/Encounter/eThL-NM4tCcs5W5AzVvE2Rw3"
                }
            ],
            "fullUrl": "https://appmarket.epic.com/interconnect-amcurprd-oauth/api/FHIR/R4/Encounter/eThL-NM4tCcs5W5AzVvE2Rw3",
            "resource": {
                "resourceType": "Encounter",
                "id": "eThL-NM4tCcs5W5AzVvE2Rw3",
                "extension": [
                    {
                        "valueBoolean": false,
                        "url": "http://open.epic.com/FHIR/StructureDefinition/extension/accidentrelated"
                    }
                ],
                "identifier": [
                    {
                        "use": "usual",
                        "system": "urn:oid:1.2.840.114350.1.13.0.1.7.3.698084.8",
                        "value": "8060"
                    }
                ],
                "status": "in-progress",
                "class": {
                    "system": "urn:oid:1.2.840.114350.1.72.1.7.7.10.696784.13260",
                    "code": "4",
                    "display": "HOV"
                },
                "type": [
                    {
                        "coding": [
                            {
                                "system": "urn:oid:1.2.840.114350.1.13.0.1.7.10.698084.10110",
                                "code": "102",
                                "display": "Outpatient"
                            }
                        ],
                        "text": "Outpatient"
                    },
                    {
                        "coding": [
                            {
                                "system": "urn:oid:1.2.840.114350.1.13.0.1.7.10.698084.30",
                                "code": "3",
                                "display": "Hospital Encounter"
                            }
                        ],
                        "text": "Hospital Encounter"
                    },
                    {
                        "coding": [
                            {
                                "system": "urn:oid:1.2.840.114350.1.13.0.1.7.10.698084.18875",
                                "code": "3",
                                "display": "Elective"
                            }
                        ],
                        "text": "Elective"
                    }
                ],
                "subject": {
                    "reference": "Patient/eovSKnwDlsv-8MsEzCJO3BA3",
                    "display": "Icu, Raj"
                },
                "participant": [
                    {
                        "type": [
                            {
                                "coding": [
                                    {
                                        "system": "http://hl7.org/fhir/v3/ParticipationType",
                                        "code": "REF",
                                        "display": "referrer"
                                    }
                                ],
                                "text": "referrer"
                            }
                        ],
                        "individual": {
                            "reference": "Practitioner/eM5CWtq15N0WJeuCet5bJlQ3",
                            "type": "Practitioner",
                            "display": "Physician Family Medicine, MD"
                        }
                    },
                    {
                        "period": {
                            "start": "2015-02-10T15:15:00Z",
                            "end": "2015-02-10T16:15:00Z"
                        },
                        "individual": {
                            "display": "EMH ULTRASOUND 1"
                        }
                    }
                ],
                "period": {
                    "start": "2015-02-10T15:13:41Z"
                },
                "account": [
                    {
                        "identifier": {
                            "system": "urn:oid:1.2.840.114350.1.13.0.1.7.2.726582",
                            "value": "614"
                        },
                        "display": "ICU,RAJ"
                    }
                ],
                "hospitalization": {
                    "extension": [
                        {
                            "valueDateTime": "2015-02-10T15:13:41Z",
                            "url": "http://open.epic.com/FHIR/StructureDefinition/extension/observation-datetime"
                        }
                    ],
                    "admitSource": {
                        "coding": [
                            {
                                "system": "urn:oid:1.2.840.114350.1.13.0.1.7.10.698084.10310",
                                "code": "2",
                                "display": "Physician or Clinic Office"
                            }
                        ],
                        "text": "Physician or Clinic Office"
                    }
                },
                "location": [
                    {
                        "location": {
                            "reference": "Location/ez59DVjYecHrcp68r91sBRyVi6ZuEKUaoCXwu.gX3oHc3",
                            "display": "EMH Ultrasound Imaging"
                        }
                    },
                    {
                        "location": {
                            "reference": "Location/ez59DVjYecHrcp68r91sBRyVi6ZuEKUaoCXwu.gX3oHc3",
                            "display": "EMH Ultrasound Imaging"
                        }
                    },
                    {
                        "location": {
                            "reference": "Location/eQSOrLdbVrMRc68KBcTBG4A3",
                            "display": "Epic Hospital System"
                        }
                    }
                ]
            },
            "search": {
                "mode": "match"
            }
        },
        {
            "link": [
                {
                    "relation": "self",
                    "url": "https://appmarket.epic.com/interconnect-amcurprd-oauth/api/FHIR/R4/Encounter/eEHKX7T.b8iK8iJlzjYgQPA3"
                }
            ],
            "fullUrl": "https://appmarket.epic.com/interconnect-amcurprd-oauth/api/FHIR/R4/Encounter/eEHKX7T.b8iK8iJlzjYgQPA3",
            "resource": {
                "resourceType": "Encounter",
                "id": "eEHKX7T.b8iK8iJlzjYgQPA3",
                "identifier": [
                    {
                        "use": "usual",
                        "system": "urn:oid:1.2.840.114350.1.13.0.1.7.3.698084.8",
                        "value": "8065"
                    }
                ],
                "status": "unknown",
                "class": {
                    "system": "urn:oid:1.2.840.114350.1.72.1.7.7.10.696784.13260",
                    "code": "13",
                    "display": "Support OP Encounter"
                },
                "subject": {
                    "reference": "Patient/eovSKnwDlsv-8MsEzCJO3BA3",
                    "display": "Icu, Raj"
                },
                "period": {
                    "start": "2013-02-20",
                    "end": "2013-02-20"
                }
            },
            "search": {
                "mode": "match"
            }
        },
        {
            "link": [
                {
                    "relation": "self",
                    "url": "https://appmarket.epic.com/interconnect-amcurprd-oauth/api/FHIR/R4/Encounter/eWxcWx7jgJPAwpzw50deuoQ3"
                }
            ],
            "fullUrl": "https://appmarket.epic.com/interconnect-amcurprd-oauth/api/FHIR/R4/Encounter/eWxcWx7jgJPAwpzw50deuoQ3",
            "resource": {
                "resourceType": "Encounter",
                "id": "eWxcWx7jgJPAwpzw50deuoQ3",
                "identifier": [
                    {
                        "use": "usual",
                        "system": "urn:oid:1.2.840.114350.1.13.0.1.7.3.698084.8",
                        "value": "8066"
                    }
                ],
                "status": "unknown",
                "class": {
                    "system": "urn:oid:1.2.840.114350.1.72.1.7.7.10.696784.13260",
                    "code": "13",
                    "display": "Support OP Encounter"
                },
                "subject": {
                    "reference": "Patient/eovSKnwDlsv-8MsEzCJO3BA3",
                    "display": "Icu, Raj"
                },
                "period": {
                    "start": "2013-02-20",
                    "end": "2013-02-20"
                }
            },
            "search": {
                "mode": "match"
            }
        },
        {
            "link": [
                {
                    "relation": "self",
                    "url": "https://appmarket.epic.com/interconnect-amcurprd-oauth/api/FHIR/R4/Encounter/er.4c.udht1e09BqlMphe3w3"
                }
            ],
            "fullUrl": "https://appmarket.epic.com/interconnect-amcurprd-oauth/api/FHIR/R4/Encounter/er.4c.udht1e09BqlMphe3w3",
            "resource": {
                "resourceType": "Encounter",
                "id": "er.4c.udht1e09BqlMphe3w3",
                "identifier": [
                    {
                        "use": "usual",
                        "system": "urn:oid:1.2.840.114350.1.13.0.1.7.3.698084.8",
                        "value": "8067"
                    }
                ],
                "status": "unknown",
                "class": {
                    "system": "urn:oid:1.2.840.114350.1.72.1.7.7.10.696784.13260",
                    "code": "13",
                    "display": "Support OP Encounter"
                },
                "subject": {
                    "reference": "Patient/eovSKnwDlsv-8MsEzCJO3BA3",
                    "display": "Icu, Raj"
                },
                "period": {
                    "start": "2013-02-20",
                    "end": "2013-02-20"
                }
            },
            "search": {
                "mode": "match"
            }
        },
        {
            "link": [
                {
                    "relation": "self",
                    "url": "https://appmarket.epic.com/interconnect-amcurprd-oauth/api/FHIR/R4/Encounter/eGYVvU.vmd4vcvawGaXqtAg3"
                }
            ],
            "fullUrl": "https://appmarket.epic.com/interconnect-amcurprd-oauth/api/FHIR/R4/Encounter/eGYVvU.vmd4vcvawGaXqtAg3",
            "resource": {
                "resourceType": "Encounter",
                "id": "eGYVvU.vmd4vcvawGaXqtAg3",
                "identifier": [
                    {
                        "use": "usual",
                        "system": "urn:oid:1.2.840.114350.1.13.0.1.7.3.698084.8",
                        "value": "8068"
                    }
                ],
                "status": "unknown",
                "class": {
                    "system": "urn:oid:1.2.840.114350.1.72.1.7.7.10.696784.13260",
                    "code": "13",
                    "display": "Support OP Encounter"
                },
                "subject": {
                    "reference": "Patient/eovSKnwDlsv-8MsEzCJO3BA3",
                    "display": "Icu, Raj"
                },
                "period": {
                    "start": "2013-02-18",
                    "end": "2013-02-18"
                }
            },
            "search": {
                "mode": "match"
            }
        },
        {
            "link": [
                {
                    "relation": "self",
                    "url": "https://appmarket.epic.com/interconnect-amcurprd-oauth/api/FHIR/R4/Encounter/eVk63S-86zA7kwMDjbOQehw3"
                }
            ],
            "fullUrl": "https://appmarket.epic.com/interconnect-amcurprd-oauth/api/FHIR/R4/Encounter/eVk63S-86zA7kwMDjbOQehw3",
            "resource": {
                "resourceType": "Encounter",
                "id": "eVk63S-86zA7kwMDjbOQehw3",
                "identifier": [
                    {
                        "use": "usual",
                        "system": "urn:oid:1.2.840.114350.1.13.0.1.7.3.698084.8",
                        "value": "8069"
                    }
                ],
                "status": "unknown",
                "class": {
                    "system": "urn:oid:1.2.840.114350.1.72.1.7.7.10.696784.13260",
                    "code": "13",
                    "display": "Support OP Encounter"
                },
                "subject": {
                    "reference": "Patient/eovSKnwDlsv-8MsEzCJO3BA3",
                    "display": "Icu, Raj"
                },
                "period": {
                    "start": "2013-02-18",
                    "end": "2013-02-18"
                }
            },
            "search": {
                "mode": "match"
            }
        },
        {
            "link": [
                {
                    "relation": "self",
                    "url": "https://appmarket.epic.com/interconnect-amcurprd-oauth/api/FHIR/R4/Encounter/e-uf5em3vkM7b9uWrWopMwg3"
                }
            ],
            "fullUrl": "https://appmarket.epic.com/interconnect-amcurprd-oauth/api/FHIR/R4/Encounter/e-uf5em3vkM7b9uWrWopMwg3",
            "resource": {
                "resourceType": "Encounter",
                "id": "e-uf5em3vkM7b9uWrWopMwg3",
                "identifier": [
                    {
                        "use": "usual",
                        "system": "urn:oid:1.2.840.114350.1.13.0.1.7.3.698084.8",
                        "value": "8070"
                    }
                ],
                "status": "unknown",
                "class": {
                    "system": "urn:oid:1.2.840.114350.1.72.1.7.7.10.696784.13260",
                    "code": "13",
                    "display": "Support OP Encounter"
                },
                "subject": {
                    "reference": "Patient/eovSKnwDlsv-8MsEzCJO3BA3",
                    "display": "Icu, Raj"
                },
                "period": {
                    "start": "2013-02-18",
                    "end": "2013-02-18"
                }
            },
            "search": {
                "mode": "match"
            }
        },
        {
            "link": [
                {
                    "relation": "self",
                    "url": "https://appmarket.epic.com/interconnect-amcurprd-oauth/api/FHIR/R4/Encounter/eExSZklp4YbpbhpNnsx6tng3"
                }
            ],
            "fullUrl": "https://appmarket.epic.com/interconnect-amcurprd-oauth/api/FHIR/R4/Encounter/eExSZklp4YbpbhpNnsx6tng3",
            "resource": {
                "resourceType": "Encounter",
                "id": "eExSZklp4YbpbhpNnsx6tng3",
                "identifier": [
                    {
                        "use": "usual",
                        "system": "urn:oid:1.2.840.114350.1.13.0.1.7.3.698084.8",
                        "value": "8071"
                    }
                ],
                "status": "unknown",
                "class": {
                    "system": "urn:oid:1.2.840.114350.1.72.1.7.7.10.696784.13260",
                    "code": "13",
                    "display": "Support OP Encounter"
                },
                "subject": {
                    "reference": "Patient/eovSKnwDlsv-8MsEzCJO3BA3",
                    "display": "Icu, Raj"
                },
                "period": {
                    "start": "2013-02-18",
                    "end": "2013-02-18"
                }
            },
            "search": {
                "mode": "match"
            }
        },
        {
            "link": [
                {
                    "relation": "self",
                    "url": "https://appmarket.epic.com/interconnect-amcurprd-oauth/api/FHIR/R4/Encounter/eOxF5ihKqmWuCUv6PHRYjpA3"
                }
            ],
            "fullUrl": "https://appmarket.epic.com/interconnect-amcurprd-oauth/api/FHIR/R4/Encounter/eOxF5ihKqmWuCUv6PHRYjpA3",
            "resource": {
                "resourceType": "Encounter",
                "id": "eOxF5ihKqmWuCUv6PHRYjpA3",
                "identifier": [
                    {
                        "use": "usual",
                        "system": "urn:oid:1.2.840.114350.1.13.0.1.7.3.698084.8",
                        "value": "8072"
                    }
                ],
                "status": "unknown",
                "class": {
                    "system": "urn:oid:1.2.840.114350.1.72.1.7.7.10.696784.13260",
                    "code": "13",
                    "display": "Support OP Encounter"
                },
                "subject": {
                    "reference": "Patient/eovSKnwDlsv-8MsEzCJO3BA3",
                    "display": "Icu, Raj"
                },
                "period": {
                    "start": "2013-02-17",
                    "end": "2013-02-17"
                }
            },
            "search": {
                "mode": "match"
            }
        },
        {
            "link": [
                {
                    "relation": "self",
                    "url": "https://appmarket.epic.com/interconnect-amcurprd-oauth/api/FHIR/R4/Encounter/eh1veIxl4wUETjLyUjOUkhA3"
                }
            ],
            "fullUrl": "https://appmarket.epic.com/interconnect-amcurprd-oauth/api/FHIR/R4/Encounter/eh1veIxl4wUETjLyUjOUkhA3",
            "resource": {
                "resourceType": "Encounter",
                "id": "eh1veIxl4wUETjLyUjOUkhA3",
                "identifier": [
                    {
                        "use": "usual",
                        "system": "urn:oid:1.2.840.114350.1.13.0.1.7.3.698084.8",
                        "value": "8073"
                    }
                ],
                "status": "unknown",
                "class": {
                    "system": "urn:oid:1.2.840.114350.1.72.1.7.7.10.696784.13260",
                    "code": "13",
                    "display": "Support OP Encounter"
                },
                "subject": {
                    "reference": "Patient/eovSKnwDlsv-8MsEzCJO3BA3",
                    "display": "Icu, Raj"
                },
                "period": {
                    "start": "2013-02-17",
                    "end": "2013-02-17"
                }
            },
            "search": {
                "mode": "match"
            }
        },
        {
            "link": [
                {
                    "relation": "self",
                    "url": "https://appmarket.epic.com/interconnect-amcurprd-oauth/api/FHIR/R4/Encounter/eqfyJbMqf7ko.NxEQEg9LMQ3"
                }
            ],
            "fullUrl": "https://appmarket.epic.com/interconnect-amcurprd-oauth/api/FHIR/R4/Encounter/eqfyJbMqf7ko.NxEQEg9LMQ3",
            "resource": {
                "resourceType": "Encounter",
                "id": "eqfyJbMqf7ko.NxEQEg9LMQ3",
                "identifier": [
                    {
                        "use": "usual",
                        "system": "urn:oid:1.2.840.114350.1.13.0.1.7.3.698084.8",
                        "value": "8074"
                    }
                ],
                "status": "unknown",
                "class": {
                    "system": "urn:oid:1.2.840.114350.1.72.1.7.7.10.696784.13260",
                    "code": "13",
                    "display": "Support OP Encounter"
                },
                "subject": {
                    "reference": "Patient/eovSKnwDlsv-8MsEzCJO3BA3",
                    "display": "Icu, Raj"
                },
                "period": {
                    "start": "2013-02-17",
                    "end": "2013-02-17"
                }
            },
            "search": {
                "mode": "match"
            }
        },
        {
            "link": [
                {
                    "relation": "self",
                    "url": "https://appmarket.epic.com/interconnect-amcurprd-oauth/api/FHIR/R4/Encounter/elFx1mTqfM0EYYE6LXCiGuA3"
                }
            ],
            "fullUrl": "https://appmarket.epic.com/interconnect-amcurprd-oauth/api/FHIR/R4/Encounter/elFx1mTqfM0EYYE6LXCiGuA3",
            "resource": {
                "resourceType": "Encounter",
                "id": "elFx1mTqfM0EYYE6LXCiGuA3",
                "identifier": [
                    {
                        "use": "usual",
                        "system": "urn:oid:1.2.840.114350.1.13.0.1.7.3.698084.8",
                        "value": "8075"
                    }
                ],
                "status": "unknown",
                "class": {
                    "system": "urn:oid:1.2.840.114350.1.72.1.7.7.10.696784.13260",
                    "code": "13",
                    "display": "Support OP Encounter"
                },
                "subject": {
                    "reference": "Patient/eovSKnwDlsv-8MsEzCJO3BA3",
                    "display": "Icu, Raj"
                },
                "period": {
                    "start": "2013-02-17",
                    "end": "2013-02-17"
                }
            },
            "search": {
                "mode": "match"
            }
        },
        {
            "link": [
                {
                    "relation": "self",
                    "url": "https://appmarket.epic.com/interconnect-amcurprd-oauth/api/FHIR/R4/Encounter/e6SpSWk9Ji2HdkmfMSI3.cQ3"
                }
            ],
            "fullUrl": "https://appmarket.epic.com/interconnect-amcurprd-oauth/api/FHIR/R4/Encounter/e6SpSWk9Ji2HdkmfMSI3.cQ3",
            "resource": {
                "resourceType": "Encounter",
                "id": "e6SpSWk9Ji2HdkmfMSI3.cQ3",
                "identifier": [
                    {
                        "use": "usual",
                        "system": "urn:oid:1.2.840.114350.1.13.0.1.7.3.698084.8",
                        "value": "8076"
                    }
                ],
                "status": "unknown",
                "class": {
                    "system": "urn:oid:1.2.840.114350.1.72.1.7.7.10.696784.13260",
                    "code": "13",
                    "display": "Support OP Encounter"
                },
                "subject": {
                    "reference": "Patient/eovSKnwDlsv-8MsEzCJO3BA3",
                    "display": "Icu, Raj"
                },
                "period": {
                    "start": "2013-02-12",
                    "end": "2013-02-12"
                }
            },
            "search": {
                "mode": "match"
            }
        },
        {
            "link": [
                {
                    "relation": "self",
                    "url": "https://appmarket.epic.com/interconnect-amcurprd-oauth/api/FHIR/R4/Encounter/e41vksSasa-1Y1TGwoU4iFg3"
                }
            ],
            "fullUrl": "https://appmarket.epic.com/interconnect-amcurprd-oauth/api/FHIR/R4/Encounter/e41vksSasa-1Y1TGwoU4iFg3",
            "resource": {
                "resourceType": "Encounter",
                "id": "e41vksSasa-1Y1TGwoU4iFg3",
                "identifier": [
                    {
                        "use": "usual",
                        "system": "urn:oid:1.2.840.114350.1.13.0.1.7.3.698084.8",
                        "value": "8077"
                    }
                ],
                "status": "unknown",
                "class": {
                    "system": "urn:oid:1.2.840.114350.1.72.1.7.7.10.696784.13260",
                    "code": "13",
                    "display": "Support OP Encounter"
                },
                "subject": {
                    "reference": "Patient/eovSKnwDlsv-8MsEzCJO3BA3",
                    "display": "Icu, Raj"
                },
                "period": {
                    "start": "2013-02-12",
                    "end": "2013-02-12"
                }
            },
            "search": {
                "mode": "match"
            }
        },
        {
            "link": [
                {
                    "relation": "self",
                    "url": "https://appmarket.epic.com/interconnect-amcurprd-oauth/api/FHIR/R4/Encounter/eaVyVzDoBEsACGxmNd5JDfw3"
                }
            ],
            "fullUrl": "https://appmarket.epic.com/interconnect-amcurprd-oauth/api/FHIR/R4/Encounter/eaVyVzDoBEsACGxmNd5JDfw3",
            "resource": {
                "resourceType": "Encounter",
                "id": "eaVyVzDoBEsACGxmNd5JDfw3",
                "identifier": [
                    {
                        "use": "usual",
                        "system": "urn:oid:1.2.840.114350.1.13.0.1.7.3.698084.8",
                        "value": "8078"
                    }
                ],
                "status": "unknown",
                "class": {
                    "system": "urn:oid:1.2.840.114350.1.72.1.7.7.10.696784.13260",
                    "code": "13",
                    "display": "Support OP Encounter"
                },
                "subject": {
                    "reference": "Patient/eovSKnwDlsv-8MsEzCJO3BA3",
                    "display": "Icu, Raj"
                },
                "period": {
                    "start": "2013-02-10",
                    "end": "2013-02-10"
                }
            },
            "search": {
                "mode": "match"
            }
        },
        {
            "link": [
                {
                    "relation": "self",
                    "url": "https://appmarket.epic.com/interconnect-amcurprd-oauth/api/FHIR/R4/Encounter/eM9k2DtcoW4byJRmOlRZfbA3"
                }
            ],
            "fullUrl": "https://appmarket.epic.com/interconnect-amcurprd-oauth/api/FHIR/R4/Encounter/eM9k2DtcoW4byJRmOlRZfbA3",
            "resource": {
                "resourceType": "Encounter",
                "id": "eM9k2DtcoW4byJRmOlRZfbA3",
                "identifier": [
                    {
                        "use": "usual",
                        "system": "urn:oid:1.2.840.114350.1.13.0.1.7.3.698084.8",
                        "value": "8079"
                    }
                ],
                "status": "unknown",
                "class": {
                    "system": "urn:oid:1.2.840.114350.1.72.1.7.7.10.696784.13260",
                    "code": "13",
                    "display": "Support OP Encounter"
                },
                "subject": {
                    "reference": "Patient/eovSKnwDlsv-8MsEzCJO3BA3",
                    "display": "Icu, Raj"
                },
                "period": {
                    "start": "2013-02-10",
                    "end": "2013-02-10"
                }
            },
            "search": {
                "mode": "match"
            }
        },
        {
            "link": [
                {
                    "relation": "self",
                    "url": "https://appmarket.epic.com/interconnect-amcurprd-oauth/api/FHIR/R4/Encounter/ez7VcvJli3jtCfYTG9k7NLw3"
                }
            ],
            "fullUrl": "https://appmarket.epic.com/interconnect-amcurprd-oauth/api/FHIR/R4/Encounter/ez7VcvJli3jtCfYTG9k7NLw3",
            "resource": {
                "resourceType": "Encounter",
                "id": "ez7VcvJli3jtCfYTG9k7NLw3",
                "identifier": [
                    {
                        "use": "usual",
                        "system": "urn:oid:1.2.840.114350.1.13.0.1.7.3.698084.8",
                        "value": "8080"
                    }
                ],
                "status": "unknown",
                "class": {
                    "system": "urn:oid:1.2.840.114350.1.72.1.7.7.10.696784.13260",
                    "code": "13",
                    "display": "Support OP Encounter"
                },
                "subject": {
                    "reference": "Patient/eovSKnwDlsv-8MsEzCJO3BA3",
                    "display": "Icu, Raj"
                },
                "period": {
                    "start": "2013-02-10",
                    "end": "2013-02-10"
                }
            },
            "search": {
                "mode": "match"
            }
        },
        {
            "link": [
                {
                    "relation": "self",
                    "url": "https://appmarket.epic.com/interconnect-amcurprd-oauth/api/FHIR/R4/EpisodeOfCare/eaVXtQPRLXkFeCdqw6T3uRQ3"
                }
            ],
            "fullUrl": "https://appmarket.epic.com/interconnect-amcurprd-oauth/api/FHIR/R4/EpisodeOfCare/eaVXtQPRLXkFeCdqw6T3uRQ3",
            "resource": {
                "resourceType": "EpisodeOfCare",
                "id": "eaVXtQPRLXkFeCdqw6T3uRQ3",
                "extension": [
                    {
                        "valueString": "Ep1",
                        "url": "http://open.epic.com/FHIR/StructureDefinition/extension/episode-name"
                    }
                ],
                "status": "active",
                "type": [
                    {
                        "coding": [
                            {
                                "system": "urn:oid:1.2.840.114350.1.13.0.1.7.2.726668",
                                "code": "3140000017",
                                "display": "LONG TERM CARE"
                            },
                            {
                                "system": "urn:oid:1.2.840.114350.1.13.0.1.7.4.726668.130",
                                "code": "17",
                                "display": "Long Term Care"
                            }
                        ],
                        "text": "LONG TERM CARE"
                    }
                ],
                "patient": {
                    "reference": "Patient/eovSKnwDlsv-8MsEzCJO3BA3",
                    "type": "Patient",
                    "display": "Icu, Raj"
                },
                "period": {
                    "start": "2021-01-19"
                },
                "team": [
                    {
                        "reference": "CareTeam/eFUCPc7TauHIqBmwp2Lmw0LGrZ1rw7ddNsrI6yyoyyZU3",
                        "type": "CareTeam"
                    }
                ]
            },
            "search": {
                "mode": "include"
            }
        },
        {
            "link": [
                {
                    "relation": "self",
                    "url": "https://appmarket.epic.com/interconnect-amcurprd-oauth/api/FHIR/R4/Patient/eovSKnwDlsv-8MsEzCJO3BA3"
                }
            ],
            "fullUrl": "https://appmarket.epic.com/interconnect-amcurprd-oauth/api/FHIR/R4/Patient/eovSKnwDlsv-8MsEzCJO3BA3",
            "resource": {
                "resourceType": "Patient",
                "id": "eovSKnwDlsv-8MsEzCJO3BA3",
                "extension": [
                    {
                        "extension": [
                            {
                                "valueCoding": {
                                    "system": "urn:oid:2.16.840.1.113883.6.238",
                                    "code": "2028-9",
                                    "display": "Asian"
                                },
                                "url": "ombCategory"
                            },
                            {
                                "valueString": "Other Asian",
                                "url": "text"
                            }
                        ],
                        "url": "http://hl7.org/fhir/us/core/StructureDefinition/us-core-race"
                    },
                    {
                        "extension": [
                            {
                                "valueCoding": {
                                    "system": "urn:oid:2.16.840.1.113883.6.238",
                                    "code": "2186-5",
                                    "display": "Not Hispanic or Latino"
                                },
                                "url": "ombCategory"
                            },
                            {
                                "valueString": "Not Hispanic or Latino",
                                "url": "text"
                            }
                        ],
                        "url": "http://hl7.org/fhir/us/core/StructureDefinition/us-core-ethnicity"
                    },
                    {
                        "valueCodeableConcept": {
                            "coding": [
                                {
                                    "system": "urn:oid:1.2.840.114350.1.13.0.1.7.10.698084.130.657370.19999000",
                                    "code": "male",
                                    "display": "male"
                                }
                            ]
                        },
                        "url": "http://open.epic.com/FHIR/StructureDefinition/extension/legal-sex"
                    },
                    {
                        "valueCodeableConcept": {
                            "coding": [
                                {
                                    "system": "urn:oid:1.2.840.114350.1.13.0.1.7.10.698084.130.657370.19999000",
                                    "code": "male",
                                    "display": "male"
                                }
                            ]
                        },
                        "url": "http://open.epic.com/FHIR/StructureDefinition/extension/sex-for-clinical-use"
                    },
                    {
                        "valueCode": "M",
                        "url": "http://hl7.org/fhir/us/core/StructureDefinition/us-core-birthsex"
                    }
                ],
                "identifier": [
                    {
                        "use": "usual",
                        "system": "urn:oid:2.16.840.1.113883.4.1",
                        "value": "294-91-6431"
                    },
                    {
                        "use": "usual",
                        "type": {
                            "text": "CEID"
                        },
                        "system": "urn:epic:apporchard.curprod",
                        "value": "AO1TBDM7PJ9P4GB"
                    },
                    {
                        "use": "usual",
                        "type": {
                            "text": "EPIC"
                        },
                        "system": "urn:oid:1.2.840.114350.1.1",
                        "value": "E2986"
                    },
                    {
                        "use": "usual",
                        "type": {
                            "text": "EXTERNAL"
                        },
                        "system": "urn:oid:1.2.840.114350.1.13.0.1.7.2.698084",
                        "value": "Z5000"
                    },
                    {
                        "use": "usual",
                        "type": {
                            "text": "FHIR"
                        },
                        "system": "http://open.epic.com/FHIR/StructureDefinition/patient-dstu2-fhir-id",
                        "value": "Tw9VtXtAbR37akPR9f3OpDeIGmuMSZfTF3OvO.wdrPVAB"
                    },
                    {
                        "use": "usual",
                        "type": {
                            "text": "FHIR STU3"
                        },
                        "system": "http://open.epic.com/FHIR/StructureDefinition/patient-fhir-id",
                        "value": "eovSKnwDlsv-8MsEzCJO3BA3"
                    },
                    {
                        "use": "usual",
                        "type": {
                            "text": "INTERNAL"
                        },
                        "system": "urn:oid:1.2.840.114350.1.13.0.1.7.2.698084",
                        "value": "     Z5000"
                    },
                    {
                        "use": "usual",
                        "type": {
                            "text": "MRN"
                        },
                        "system": "urn:oid:1.2.840.114350.1.13.0.1.7.5.737384.14",
                        "value": "202740"
                    },
                    {
                        "use": "usual",
                        "type": {
                            "text": "MYCHARTLOGIN"
                        },
                        "system": "urn:oid:1.2.840.114350.1.13.0.1.7.3.878082.110",
                        "value": "ICURAJ"
                    },
                    {
                        "use": "usual",
                        "type": {
                            "text": "WPRINTERNAL"
                        },
                        "system": "urn:oid:1.2.840.114350.1.13.0.1.7.2.878082",
                        "value": "282"
                    },
                    {
                        "use": "usual",
                        "system": "https://open.epic.com/FHIR/StructureDefinition/PayerMemberId",
                        "value": "160266676"
                    }
                ],
                "active": true,
                "name": [
                    {
                        "use": "official",
                        "text": "Raj Icu",
                        "family": "Icu",
                        "given": [
                            "Raj"
                        ]
                    },
                    {
                        "use": "usual",
                        "text": "Raj Icu",
                        "family": "Icu",
                        "given": [
                            "Raj"
                        ]
                    }
                ],
                "telecom": [
                    {
                        "system": "phone",
                        "value": "485-985-8589",
                        "use": "home"
                    }
                ],
                "gender": "male",
                "birthDate": "1955-02-09",
                "deceasedBoolean": false,
                "address": [
                    {
                        "use": "old",
                        "line": [
                            "1979 Milky Way"
                        ],
                        "city": "Madison",
                        "state": "WI",
                        "postalCode": "53715",
                        "country": "US"
                    },
                    {
                        "use": "home",
                        "line": [
                            "1979 Milky Way"
                        ],
                        "city": "Madison",
                        "state": "WI",
                        "postalCode": "53715",
                        "country": "US"
                    }
                ],
                "maritalStatus": {
                    "text": "Married"
                },
                "contact": [
                    {
                        "relationship": [
                            {
                                "coding": [
                                    {
                                        "system": "http://terminology.hl7.org/CodeSystem/v2-0131",
                                        "code": "C",
                                        "display": "Emergency Contact"
                                    },
                                    {
                                        "system": "http://terminology.hl7.org/CodeSystem/v2-0131",
                                        "code": "N",
                                        "display": "Next-of-Kin"
                                    },
                                    {
                                        "system": "urn:oid:1.2.840.114350.1.13.0.1.7.4.827665.1000",
                                        "code": "3",
                                        "display": "Father"
                                    }
                                ],
                                "text": "Father"
                            }
                        ],
                        "name": {
                            "use": "usual",
                            "text": "Reddy,Neil"
                        },
                        "telecom": [
                            {
                                "system": "phone",
                                "value": "548-856-8965",
                                "use": "home"
                            }
                        ]
                    }
                ],
                "communication": [
                    {
                        "language": {
                            "coding": [
                                {
                                    "system": "urn:ietf:bcp:47",
                                    "code": "en",
                                    "display": "English"
                                }
                            ],
                            "text": "English"
                        },
                        "preferred": true
                    }
                ],
                "generalPractitioner": [
                    {
                        "reference": "Practitioner/eM5CWtq15N0WJeuCet5bJlQ3",
                        "type": "Practitioner",
                        "display": "Physician Family Medicine, MD"
                    }
                ],
                "managingOrganization": {
                    "reference": "Organization/enRyWnSP963FYDpoks4NHOA3",
                    "display": "Epic Hospital System"
                }
            },
            "search": {
                "mode": "include"
            }
        },
        {
            "link": [
                {
                    "relation": "self",
                    "url": "https://appmarket.epic.com/interconnect-amcurprd-oauth/api/FHIR/R4/Condition/eqrR1BMfXhGmimr8OUK7PbA3"
                }
            ],
            "fullUrl": "https://appmarket.epic.com/interconnect-amcurprd-oauth/api/FHIR/R4/Condition/eqrR1BMfXhGmimr8OUK7PbA3",
            "resource": {
                "resourceType": "Condition",
                "id": "eqrR1BMfXhGmimr8OUK7PbA3",
                "clinicalStatus": {
                    "coding": [
                        {
                            "system": "http://terminology.hl7.org/CodeSystem/condition-clinical",
                            "version": "4.0.0",
                            "code": "active",
                            "display": "Active"
                        }
                    ],
                    "text": "Active"
                },
                "verificationStatus": {
                    "coding": [
                        {
                            "system": "http://terminology.hl7.org/CodeSystem/condition-ver-status",
                            "version": "4.0.0",
                            "code": "confirmed",
                            "display": "Confirmed"
                        }
                    ],
                    "text": "Confirmed"
                },
                "category": [
                    {
                        "coding": [
                            {
                                "system": "http://terminology.hl7.org/CodeSystem/condition-category",
                                "code": "problem-list-item",
                                "display": "Problem List Item"
                            }
                        ],
                        "text": "Problem List Item"
                    }
                ],
                "code": {
                    "coding": [
                        {
                            "system": "http://hl7.org/fhir/sid/icd-10-cm",
                            "code": "J69.0"
                        },
                        {
                            "system": "http://snomed.info/sct",
                            "code": "422588002"
                        }
                    ],
                    "text": "Aspiration pneumonia (CMS/HCC)"
                },
                "subject": {
                    "reference": "Patient/eovSKnwDlsv-8MsEzCJO3BA3",
                    "display": "Icu, Raj"
                },
                "onsetPeriod": {
                    "start": "2015-02-19",
                    "end": "2015-02-19"
                },
                "recordedDate": "2015-02-19"
            },
            "search": {
                "mode": "include"
            }
        }
    ]
}