{
    "resourceType": "Bundle",
    "type": "searchset",
    "total": 16,
    "link": [
        {
            "relation": "self",
            "url": "https://appmarket.epic.com/interconnect-amcurprd-oauth/api/FHIR/R4/Encounter?_include=Encounter:condition&_include=Encounter:episodeOfCare&_include=Encounter:partOf&_include=Encounter:subject&_format=json&patient=egxYhVDNeM1x1mDCNcXg08Q3"
        }
    ],
    "entry": [
        {
            "link": [
                {
                    "relation": "self",
                    "url": "https://appmarket.epic.com/interconnect-amcurprd-oauth/api/FHIR/R4/Encounter/eS1SsXmQ4k92eUtEtZyvY4Q3"
                }
            ],
            "fullUrl": "https://appmarket.epic.com/interconnect-amcurprd-oauth/api/FHIR/R4/Encounter/eS1SsXmQ4k92eUtEtZyvY4Q3",
            "resource": {
                "resourceType": "Encounter",
                "id": "eS1SsXmQ4k92eUtEtZyvY4Q3",
                "identifier": [
                    {
                        "use": "usual",
                        "system": "urn:oid:1.2.840.114350.1.13.0.1.7.3.698084.8",
                        "value": "7599"
                    }
                ],
                "status": "finished",
                "class": {
                    "system": "urn:oid:1.2.840.114350.1.72.1.7.7.10.696784.13260",
                    "code": "13",
                    "display": "Support OP Encounter"
                },
                "type": [
                    {
                        "coding": [
                            {
                                "system": "urn:oid:1.2.840.114350.1.13.0.1.7.10.698084.30",
                                "code": "150",
                                "display": "Abstract"
                            }
                        ],
                        "text": "Abstract"
                    }
                ],
                "subject": {
                    "reference": "Patient/egxYhVDNeM1x1mDCNcXg08Q3",
                    "display": "Kidney, Kelly E"
                },
                "episodeOfCare": [
                    {
                        "reference": "EpisodeOfCare/e9-pOAfTF2YHptoO1RykFiA3",
                        "type": "EpisodeOfCare",
                        "display": "Kidney, Pancreas Transplant Waitlist - Qualified: 10/1/2013"
                    }
                ],
                "participant": [
                    {
                        "individual": {
                            "reference": "Practitioner/eM5CWtq15N0WJeuCet5bJlQ3",
                            "type": "Practitioner",
                            "display": "Physician Family Medicine, MD"
                        }
                    }
                ],
                "period": {
                    "start": "2013-11-15",
                    "end": "2013-11-15"
                },
                "location": [
                    {
                        "location": {
                            "reference": "Location/e.zUbzUZH9WErlJkdM0-hMZY7Z6JkVK.ftghaWm0ZCLs3",
                            "display": "EMH Abdominal Transplant"
                        }
                    }
                ]
            },
            "search": {
                "mode": "match"
            }
        },
        {
            "link": [
                {
                    "relation": "self",
                    "url": "https://appmarket.epic.com/interconnect-amcurprd-oauth/api/FHIR/R4/Encounter/eKWGF1c4sDSFstO9HGewHOQ3"
                }
            ],
            "fullUrl": "https://appmarket.epic.com/interconnect-amcurprd-oauth/api/FHIR/R4/Encounter/eKWGF1c4sDSFstO9HGewHOQ3",
            "resource": {
                "resourceType": "Encounter",
                "id": "eKWGF1c4sDSFstO9HGewHOQ3",
                "identifier": [
                    {
                        "use": "usual",
                        "system": "urn:oid:1.2.840.114350.1.13.0.1.7.3.698084.8",
                        "value": "7600"
                    }
                ],
                "status": "finished",
                "class": {
                    "system": "urn:oid:1.2.840.114350.1.72.1.7.7.10.696784.13260",
                    "code": "13",
                    "display": "Support OP Encounter"
                },
                "type": [
                    {
                        "coding": [
                            {
                                "system": "urn:oid:1.2.840.114350.1.13.0.1.7.10.698084.30",
                                "code": "150",
                                "display": "Abstract"
                            }
                        ],
                        "text": "Abstract"
                    }
                ],
                "subject": {
                    "reference": "Patient/egxYhVDNeM1x1mDCNcXg08Q3",
                    "display": "Kidney, Kelly E"
                },
                "episodeOfCare": [
                    {
                        "reference": "EpisodeOfCare/e9-pOAfTF2YHptoO1RykFiA3",
                        "type": "EpisodeOfCare",
                        "display": "Kidney, Pancreas Transplant Waitlist - Qualified: 10/1/2013"
                    }
                ],
                "participant": [
                    {
                        "individual": {
                            "reference": "Practitioner/eM5CWtq15N0WJeuCet5bJlQ3",
                            "type": "Practitioner",
                            "display": "Physician Family Medicine, MD"
                        }
                    }
                ],
                "period": {
                    "start": "2013-10-01",
                    "end": "2013-10-01"
                },
                "location": [
                    {
                        "location": {
                            "reference": "Location/e.zUbzUZH9WErlJkdM0-hMZY7Z6JkVK.ftghaWm0ZCLs3",
                            "display": "EMH Abdominal Transplant"
                        }
                    }
                ]
            },
            "search": {
                "mode": "match"
            }
        },
        {
            "link": [
                {
                    "relation": "self",
                    "url": "https://appmarket.epic.com/interconnect-amcurprd-oauth/api/FHIR/R4/Encounter/e4AgFI0wUItafIzSH5I0ppg3"
                }
            ],
            "fullUrl": "https://appmarket.epic.com/interconnect-amcurprd-oauth/api/FHIR/R4/Encounter/e4AgFI0wUItafIzSH5I0ppg3",
            "resource": {
                "resourceType": "Encounter",
                "id": "e4AgFI0wUItafIzSH5I0ppg3",
                "identifier": [
                    {
                        "use": "usual",
                        "system": "urn:oid:1.2.840.114350.1.13.0.1.7.3.698084.8",
                        "value": "7601"
                    }
                ],
                "status": "finished",
                "class": {
                    "system": "urn:oid:1.2.840.114350.1.72.1.7.7.10.696784.13260",
                    "code": "13",
                    "display": "Support OP Encounter"
                },
                "type": [
                    {
                        "coding": [
                            {
                                "system": "urn:oid:1.2.840.114350.1.13.0.1.7.10.698084.30",
                                "code": "97",
                                "display": "Committee Review"
                            }
                        ],
                        "text": "Committee Review"
                    }
                ],
                "subject": {
                    "reference": "Patient/egxYhVDNeM1x1mDCNcXg08Q3",
                    "display": "Kidney, Kelly E"
                },
                "episodeOfCare": [
                    {
                        "reference": "EpisodeOfCare/e9-pOAfTF2YHptoO1RykFiA3",
                        "type": "EpisodeOfCare",
                        "display": "Kidney, Pancreas Transplant Waitlist - Qualified: 10/1/2013"
                    }
                ],
                "participant": [
                    {
                        "extension": [
                            {
                                "valueCodeableConcept": {
                                    "coding": [
                                        {
                                            "system": "urn:oid:1.2.840.114350.1.13.0.1.7.4.698084.18832",
                                            "code": "18",
                                            "display": "Nephrology"
                                        }
                                    ],
                                    "text": "Nephrology"
                                },
                                "url": "http://open.epic.com/FHIR/StructureDefinition/extension/specialty"
                            }
                        ],
                        "period": {
                            "start": "2013-10-02T00:38:45Z",
                            "end": "2013-10-02T00:41:17Z"
                        },
                        "individual": {
                            "reference": "Practitioner/eCrJpIrI.mEh0SBl7eoMYZg3",
                            "type": "Practitioner",
                            "display": "Physician Nephrology, MD"
                        }
                    },
                    {
                        "extension": [
                            {
                                "valueCodeableConcept": {
                                    "coding": [
                                        {
                                            "system": "urn:oid:1.2.840.114350.1.13.0.1.7.4.698084.18832",
                                            "code": "21",
                                            "display": "Nutrition"
                                        }
                                    ],
                                    "text": "Nutrition"
                                },
                                "url": "http://open.epic.com/FHIR/StructureDefinition/extension/specialty"
                            }
                        ],
                        "period": {
                            "start": "2013-10-02T00:38:45Z",
                            "end": "2013-10-02T00:41:17Z"
                        },
                        "individual": {
                            "reference": "Practitioner/eMrXAuxP1T8WDXTauxeih8A3",
                            "type": "Practitioner",
                            "display": "Nutrition Inpatient, RD"
                        }
                    },
                    {
                        "extension": [
                            {
                                "valueCodeableConcept": {
                                    "coding": [
                                        {
                                            "system": "urn:oid:1.2.840.114350.1.13.0.1.7.4.698084.18832",
                                            "code": "37",
                                            "display": "Psychiatry"
                                        }
                                    ],
                                    "text": "Psychiatry"
                                },
                                "url": "http://open.epic.com/FHIR/StructureDefinition/extension/specialty"
                            }
                        ],
                        "period": {
                            "start": "2013-10-02T00:38:45Z",
                            "end": "2013-10-02T00:41:17Z"
                        },
                        "individual": {
                            "reference": "Practitioner/erVI51faK4HiMDOnwELLxcA3",
                            "type": "Practitioner",
                            "display": "Physician Psychiatry, MD"
                        }
                    },
                    {
                        "extension": [
                            {
                                "valueCodeableConcept": {
                                    "coding": [
                                        {
                                            "system": "urn:oid:1.2.840.114350.1.13.0.1.7.4.698084.18832",
                                            "code": "38",
                                            "display": "Psychology"
                                        }
                                    ],
                                    "text": "Psychology"
                                },
                                "url": "http://open.epic.com/FHIR/StructureDefinition/extension/specialty"
                            }
                        ],
                        "period": {
                            "start": "2013-10-02T00:38:45Z",
                            "end": "2013-10-02T00:41:17Z"
                        },
                        "individual": {
                            "reference": "Practitioner/e6S0THxOPrGAM15rH9NZQjg3",
                            "type": "Practitioner",
                            "display": "Social Worker, LCSW"
                        }
                    },
                    {
                        "extension": [
                            {
                                "valueCodeableConcept": {
                                    "coding": [
                                        {
                                            "system": "urn:oid:1.2.840.114350.1.13.0.1.7.4.698084.18832",
                                            "code": "43",
                                            "display": "Urology"
                                        }
                                    ],
                                    "text": "Urology"
                                },
                                "url": "http://open.epic.com/FHIR/StructureDefinition/extension/specialty"
                            }
                        ],
                        "period": {
                            "start": "2013-10-02T00:38:45Z",
                            "end": "2013-10-02T00:41:17Z"
                        },
                        "individual": {
                            "reference": "Practitioner/eHa9H7vPMVfXLX7SYnaJc.Q3",
                            "type": "Practitioner",
                            "display": "Physician One Urology, MD"
                        }
                    },
                    {
                        "extension": [
                            {
                                "valueCodeableConcept": {
                                    "coding": [
                                        {
                                            "system": "urn:oid:1.2.840.114350.1.13.0.1.7.4.698084.18832",
                                            "code": "124",
                                            "display": "Pharmacy"
                                        }
                                    ],
                                    "text": "Pharmacy"
                                },
                                "url": "http://open.epic.com/FHIR/StructureDefinition/extension/specialty"
                            }
                        ],
                        "period": {
                            "start": "2013-10-02T00:38:45Z",
                            "end": "2013-10-02T00:41:17Z"
                        },
                        "individual": {
                            "reference": "Practitioner/eTqJMfUFpdZx2nCjgBuc5HA3",
                            "type": "Practitioner",
                            "display": "Pharmacist Willow Ambulatory, RPh"
                        }
                    },
                    {
                        "extension": [
                            {
                                "valueCodeableConcept": {
                                    "coding": [
                                        {
                                            "system": "urn:oid:1.2.840.114350.1.13.0.1.7.4.698084.18832",
                                            "code": "136",
                                            "display": "Transplant"
                                        }
                                    ],
                                    "text": "Transplant"
                                },
                                "url": "http://open.epic.com/FHIR/StructureDefinition/extension/specialty"
                            }
                        ],
                        "period": {
                            "start": "2013-10-02T00:38:45Z",
                            "end": "2013-10-02T00:41:17Z"
                        },
                        "individual": {
                            "reference": "Practitioner/e4fBRdwCD6bWDI76z9Bn9WA3",
                            "type": "Practitioner",
                            "display": "Coordinator Phoenix, RN"
                        }
                    },
                    {
                        "extension": [
                            {
                                "valueCodeableConcept": {
                                    "coding": [
                                        {
                                            "system": "urn:oid:1.2.840.114350.1.13.0.1.7.4.698084.18832",
                                            "code": "136",
                                            "display": "Transplant"
                                        }
                                    ],
                                    "text": "Transplant"
                                },
                                "url": "http://open.epic.com/FHIR/StructureDefinition/extension/specialty"
                            }
                        ],
                        "type": [
                            {
                                "text": "Chair"
                            }
                        ],
                        "period": {
                            "start": "2013-10-02T00:38:45Z",
                            "end": "2013-10-02T00:41:17Z"
                        },
                        "individual": {
                            "reference": "Practitioner/emhilH6WzKBpangkpuWtgdQ3",
                            "type": "Practitioner",
                            "display": "Physician Phoenix, MD"
                        }
                    }
                ],
                "period": {
                    "start": "2013-10-01",
                    "end": "2013-10-01"
                },
                "location": [
                    {
                        "location": {
                            "reference": "Location/e.zUbzUZH9WErlJkdM0-hMZY7Z6JkVK.ftghaWm0ZCLs3",
                            "display": "EMH Abdominal Transplant"
                        }
                    }
                ]
            },
            "search": {
                "mode": "match"
            }
        },
        {
            "link": [
                {
                    "relation": "self",
                    "url": "https://appmarket.epic.com/interconnect-amcurprd-oauth/api/FHIR/R4/Encounter/eLqkRq4YYbJSKqGg3b-78EA3"
                }
            ],
            "fullUrl": "https://appmarket.epic.com/interconnect-amcurprd-oauth/api/FHIR/R4/Encounter/eLqkRq4YYbJSKqGg3b-78EA3",
            "resource": {
                "resourceType": "Encounter",
                "id": "eLqkRq4YYbJSKqGg3b-78EA3",
                "identifier": [
                    {
                        "use": "usual",
                        "system": "urn:oid:1.2.840.114350.1.13.0.1.7.3.698084.8",
                        "value": "7602"
                    }
                ],
                "status": "finished",
                "class": {
                    "system": "urn:oid:1.2.840.114350.1.72.1.7.7.10.696784.13260",
                    "code": "13",
                    "display": "Support OP Encounter"
                },
                "type": [
                    {
                        "coding": [
                            {
                                "system": "urn:oid:1.2.840.114350.1.13.0.1.7.10.698084.30",
                                "code": "150",
                                "display": "Abstract"
                            }
                        ],
                        "text": "Abstract"
                    }
                ],
                "subject": {
                    "reference": "Patient/egxYhVDNeM1x1mDCNcXg08Q3",
                    "display": "Kidney, Kelly E"
                },
                "episodeOfCare": [
                    {
                        "reference": "EpisodeOfCare/e9-pOAfTF2YHptoO1RykFiA3",
                        "type": "EpisodeOfCare",
                        "display": "Kidney, Pancreas Transplant Waitlist - Qualified: 10/1/2013"
                    }
                ],
                "participant": [
                    {
                        "individual": {
                            "reference": "Practitioner/eM5CWtq15N0WJeuCet5bJlQ3",
                            "type": "Practitioner",
                            "display": "Physician Family Medicine, MD"
                        }
                    }
                ],
                "period": {
                    "start": "2013-09-24",
                    "end": "2013-09-24"
                },
                "location": [
                    {
                        "location": {
                            "reference": "Location/e.zUbzUZH9WErlJkdM0-hMZY7Z6JkVK.ftghaWm0ZCLs3",
                            "display": "EMH Abdominal Transplant"
                        }
                    }
                ]
            },
            "search": {
                "mode": "match"
            }
        },
        {
            "link": [
                {
                    "relation": "self",
                    "url": "https://appmarket.epic.com/interconnect-amcurprd-oauth/api/FHIR/R4/Encounter/ezazven6j8N3ZNEGWnP-cXA3"
                }
            ],
            "fullUrl": "https://appmarket.epic.com/interconnect-amcurprd-oauth/api/FHIR/R4/Encounter/ezazven6j8N3ZNEGWnP-cXA3",
            "resource": {
                "resourceType": "Encounter",
                "id": "ezazven6j8N3ZNEGWnP-cXA3",
                "identifier": [
                    {
                        "use": "usual",
                        "system": "urn:oid:1.2.840.114350.1.13.0.1.7.3.698084.8",
                        "value": "7603"
                    }
                ],
                "status": "finished",
                "class": {
                    "system": "urn:oid:1.2.840.114350.1.72.1.7.7.10.696784.13260",
                    "code": "13",
                    "display": "Support OP Encounter"
                },
                "type": [
                    {
                        "coding": [
                            {
                                "system": "urn:oid:1.2.840.114350.1.13.0.1.7.10.698084.30",
                                "code": "150",
                                "display": "Abstract"
                            }
                        ],
                        "text": "Abstract"
                    }
                ],
                "subject": {
                    "reference": "Patient/egxYhVDNeM1x1mDCNcXg08Q3",
                    "display": "Kidney, Kelly E"
                },
                "episodeOfCare": [
                    {
                        "reference": "EpisodeOfCare/e9-pOAfTF2YHptoO1RykFiA3",
                        "type": "EpisodeOfCare",
                        "display": "Kidney, Pancreas Transplant Waitlist - Qualified: 10/1/2013"
                    }
                ],
                "participant": [
                    {
                        "individual": {
                            "reference": "Practitioner/eM5CWtq15N0WJeuCet5bJlQ3",
                            "type": "Practitioner",
                            "display": "Physician Family Medicine, MD"
                        }
                    }
                ],
                "period": {
                    "start": "2013-09-24",
                    "end": "2013-09-24"
                },
                "location": [
                    {
                        "location": {
                            "reference": "Location/e.zUbzUZH9WErlJkdM0-hMZY7Z6JkVK.ftghaWm0ZCLs3",
                            "display": "EMH Abdominal Transplant"
                        }
                    }
                ]
            },
            "search": {
                "mode": "match"
            }
        },
        {
            "link": [
                {
                    "relation": "self",
                    "url": "https://appmarket.epic.com/interconnect-amcurprd-oauth/api/FHIR/R4/Encounter/e3JYPFu.vXP1bvsgCDu7l.w3"
                }
            ],
            "fullUrl": "https://appmarket.epic.com/interconnect-amcurprd-oauth/api/FHIR/R4/Encounter/e3JYPFu.vXP1bvsgCDu7l.w3",
            "resource": {
                "resourceType": "Encounter",
                "id": "e3JYPFu.vXP1bvsgCDu7l.w3",
                "identifier": [
                    {
                        "use": "usual",
                        "system": "urn:oid:1.2.840.114350.1.13.0.1.7.3.698084.8",
                        "value": "7608"
                    }
                ],
                "status": "finished",
                "class": {
                    "system": "urn:oid:1.2.840.114350.1.72.1.7.7.10.696784.13260",
                    "code": "13",
                    "display": "Support OP Encounter"
                },
                "type": [
                    {
                        "coding": [
                            {
                                "system": "urn:oid:1.2.840.114350.1.13.0.1.7.10.698084.30",
                                "code": "150",
                                "display": "Abstract"
                            }
                        ],
                        "text": "Abstract"
                    }
                ],
                "subject": {
                    "reference": "Patient/egxYhVDNeM1x1mDCNcXg08Q3",
                    "display": "Kidney, Kelly E"
                },
                "episodeOfCare": [
                    {
                        "reference": "EpisodeOfCare/e9-pOAfTF2YHptoO1RykFiA3",
                        "type": "EpisodeOfCare",
                        "display": "Kidney, Pancreas Transplant Waitlist - Qualified: 10/1/2013"
                    }
                ],
                "participant": [
                    {
                        "individual": {
                            "reference": "Practitioner/eM5CWtq15N0WJeuCet5bJlQ3",
                            "type": "Practitioner",
                            "display": "Physician Family Medicine, MD"
                        }
                    }
                ],
                "period": {
                    "start": "2013-09-09",
                    "end": "2013-09-09"
                },
                "location": [
                    {
                        "location": {
                            "reference": "Location/e.zUbzUZH9WErlJkdM0-hMZY7Z6JkVK.ftghaWm0ZCLs3",
                            "display": "EMH Abdominal Transplant"
                        }
                    }
                ]
            },
            "search": {
                "mode": "match"
            }
        },
        {
            "link": [
                {
                    "relation": "self",
                    "url": "https://appmarket.epic.com/interconnect-amcurprd-oauth/api/FHIR/R4/Encounter/eALR.Pob20RKXe6f-TUmehQ3"
                }
            ],
            "fullUrl": "https://appmarket.epic.com/interconnect-amcurprd-oauth/api/FHIR/R4/Encounter/eALR.Pob20RKXe6f-TUmehQ3",
            "resource": {
                "resourceType": "Encounter",
                "id": "eALR.Pob20RKXe6f-TUmehQ3",
                "identifier": [
                    {
                        "use": "usual",
                        "system": "urn:oid:1.2.840.114350.1.13.0.1.7.3.698084.8",
                        "value": "7611"
                    }
                ],
                "status": "unknown",
                "class": {
                    "system": "urn:oid:1.2.840.114350.1.72.1.7.7.10.696784.13260",
                    "code": "13",
                    "display": "Support OP Encounter"
                },
                "subject": {
                    "reference": "Patient/egxYhVDNeM1x1mDCNcXg08Q3",
                    "display": "Kidney, Kelly E"
                },
                "participant": [
                    {
                        "individual": {
                            "reference": "Practitioner/eM5CWtq15N0WJeuCet5bJlQ3",
                            "type": "Practitioner",
                            "display": "Physician Family Medicine, MD"
                        }
                    }
                ],
                "period": {
                    "start": "2012-11-19",
                    "end": "2012-11-19"
                }
            },
            "search": {
                "mode": "match"
            }
        },
        {
            "link": [
                {
                    "relation": "self",
                    "url": "https://appmarket.epic.com/interconnect-amcurprd-oauth/api/FHIR/R4/Encounter/e2kOQmnxJpKqiYFjB0aRRyw3"
                }
            ],
            "fullUrl": "https://appmarket.epic.com/interconnect-amcurprd-oauth/api/FHIR/R4/Encounter/e2kOQmnxJpKqiYFjB0aRRyw3",
            "resource": {
                "resourceType": "Encounter",
                "id": "e2kOQmnxJpKqiYFjB0aRRyw3",
                "identifier": [
                    {
                        "use": "usual",
                        "system": "urn:oid:1.2.840.114350.1.13.0.1.7.3.698084.8",
                        "value": "7612"
                    }
                ],
                "status": "unknown",
                "class": {
                    "system": "urn:oid:1.2.840.114350.1.72.1.7.7.10.696784.13260",
                    "code": "13",
                    "display": "Support OP Encounter"
                },
                "subject": {
                    "reference": "Patient/egxYhVDNeM1x1mDCNcXg08Q3",
                    "display": "Kidney, Kelly E"
                },
                "participant": [
                    {
                        "individual": {
                            "reference": "Practitioner/eM5CWtq15N0WJeuCet5bJlQ3",
                            "type": "Practitioner",
                            "display": "Physician Family Medicine, MD"
                        }
                    }
                ],
                "period": {
                    "start": "2012-11-12",
                    "end": "2012-11-12"
                }
            },
            "search": {
                "mode": "match"
            }
        },
        {
            "link": [
                {
                    "relation": "self",
                    "url": "https://appmarket.epic.com/interconnect-amcurprd-oauth/api/FHIR/R4/Encounter/eKDzF0ddRrxDU.v9dISdd7Q3"
                }
            ],
            "fullUrl": "https://appmarket.epic.com/interconnect-amcurprd-oauth/api/FHIR/R4/Encounter/eKDzF0ddRrxDU.v9dISdd7Q3",
            "resource": {
                "resourceType": "Encounter",
                "id": "eKDzF0ddRrxDU.v9dISdd7Q3",
                "identifier": [
                    {
                        "use": "usual",
                        "system": "urn:oid:1.2.840.114350.1.13.0.1.7.3.698084.8",
                        "value": "7613"
                    }
                ],
                "status": "unknown",
                "class": {
                    "system": "urn:oid:1.2.840.114350.1.72.1.7.7.10.696784.13260",
                    "code": "13",
                    "display": "Support OP Encounter"
                },
                "subject": {
                    "reference": "Patient/egxYhVDNeM1x1mDCNcXg08Q3",
                    "display": "Kidney, Kelly E"
                },
                "participant": [
                    {
                        "individual": {
                            "reference": "Practitioner/eM5CWtq15N0WJeuCet5bJlQ3",
                            "type": "Practitioner",
                            "display": "Physician Family Medicine, MD"
                        }
                    }
                ],
                "period": {
                    "start": "2012-11-12",
                    "end": "2012-11-12"
                }
            },
            "search": {
                "mode": "match"
            }
        },
        {
            "link": [
                {
                    "relation": "self",
                    "url": "https://appmarket.epic.com/interconnect-amcurprd-oauth/api/FHIR/R4/Encounter/e0Hr6Hw9p0AmKxMdNHlLoNw3"
                }
            ],
            "fullUrl": "https://appmarket.epic.com/interconnect-amcurprd-oauth/api/FHIR/R4/Encounter/e0Hr6Hw9p0AmKxMdNHlLoNw3",
            "resource": {
                "resourceType": "Encounter",
                "id": "e0Hr6Hw9p0AmKxMdNHlLoNw3",
                "identifier": [
                    {
                        "use": "usual",
                        "system": "urn:oid:1.2.840.114350.1.13.0.1.7.3.698084.8",
                        "value": "7614"
                    }
                ],
                "status": "unknown",
                "class": {
                    "system": "urn:oid:1.2.840.114350.1.72.1.7.7.10.696784.13260",
                    "code": "13",
                    "display": "Support OP Encounter"
                },
                "subject": {
                    "reference": "Patient/egxYhVDNeM1x1mDCNcXg08Q3",
                    "display": "Kidney, Kelly E"
                },
                "participant": [
                    {
                        "individual": {
                            "reference": "Practitioner/eM5CWtq15N0WJeuCet5bJlQ3",
                            "type": "Practitioner",
                            "display": "Physician Family Medicine, MD"
                        }
                    }
                ],
                "period": {
                    "start": "2012-11-11",
                    "end": "2012-11-11"
                }
            },
            "search": {
                "mode": "match"
            }
        },
        {
            "link": [
                {
                    "relation": "self",
                    "url": "https://appmarket.epic.com/interconnect-amcurprd-oauth/api/FHIR/R4/Encounter/elBKNGzdjL2dClEGUKLIAKw3"
                }
            ],
            "fullUrl": "https://appmarket.epic.com/interconnect-amcurprd-oauth/api/FHIR/R4/Encounter/elBKNGzdjL2dClEGUKLIAKw3",
            "resource": {
                "resourceType": "Encounter",
                "id": "elBKNGzdjL2dClEGUKLIAKw3",
                "identifier": [
                    {
                        "use": "usual",
                        "system": "urn:oid:1.2.840.114350.1.13.0.1.7.3.698084.8",
                        "value": "7615"
                    }
                ],
                "status": "unknown",
                "class": {
                    "system": "urn:oid:1.2.840.114350.1.72.1.7.7.10.696784.13260",
                    "code": "13",
                    "display": "Support OP Encounter"
                },
                "subject": {
                    "reference": "Patient/egxYhVDNeM1x1mDCNcXg08Q3",
                    "display": "Kidney, Kelly E"
                },
                "participant": [
                    {
                        "individual": {
                            "reference": "Practitioner/eM5CWtq15N0WJeuCet5bJlQ3",
                            "type": "Practitioner",
                            "display": "Physician Family Medicine, MD"
                        }
                    }
                ],
                "period": {
                    "start": "2012-11-11",
                    "end": "2012-11-11"
                }
            },
            "search": {
                "mode": "match"
            }
        },
        {
            "link": [
                {
                    "relation": "self",
                    "url": "https://appmarket.epic.com/interconnect-amcurprd-oauth/api/FHIR/R4/Encounter/e2o5b6axnoGhC5nhI7zZIkA3"
                }
            ],
            "fullUrl": "https://appmarket.epic.com/interconnect-amcurprd-oauth/api/FHIR/R4/Encounter/e2o5b6axnoGhC5nhI7zZIkA3",
            "resource": {
                "resourceType": "Encounter",
                "id": "e2o5b6axnoGhC5nhI7zZIkA3",
                "identifier": [
                    {
                        "use": "usual",
                        "system": "urn:oid:1.2.840.114350.1.13.0.1.7.3.698084.8",
                        "value": "7616"
                    }
                ],
                "status": "unknown",
                "class": {
                    "system": "urn:oid:1.2.840.114350.1.72.1.7.7.10.696784.13260",
                    "code": "13",
                    "display": "Support OP Encounter"
                },
                "subject": {
                    "reference": "Patient/egxYhVDNeM1x1mDCNcXg08Q3",
                    "display": "Kidney, Kelly E"
                },
                "participant": [
                    {
                        "individual": {
                            "reference": "Practitioner/eM5CWtq15N0WJeuCet5bJlQ3",
                            "type": "Practitioner",
                            "display": "Physician Family Medicine, MD"
                        }
                    }
                ],
                "period": {
                    "start": "2012-10-28",
                    "end": "2012-10-28"
                }
            },
            "search": {
                "mode": "match"
            }
        },
        {
            "link": [
                {
                    "relation": "self",
                    "url": "https://appmarket.epic.com/interconnect-amcurprd-oauth/api/FHIR/R4/Encounter/eoSFUmdq39uvOPrppHl.OMQ3"
                }
            ],
            "fullUrl": "https://appmarket.epic.com/interconnect-amcurprd-oauth/api/FHIR/R4/Encounter/eoSFUmdq39uvOPrppHl.OMQ3",
            "resource": {
                "resourceType": "Encounter",
                "id": "eoSFUmdq39uvOPrppHl.OMQ3",
                "identifier": [
                    {
                        "use": "usual",
                        "system": "urn:oid:1.2.840.114350.1.13.0.1.7.3.698084.8",
                        "value": "7617"
                    }
                ],
                "status": "unknown",
                "class": {
                    "system": "urn:oid:1.2.840.114350.1.72.1.7.7.10.696784.13260",
                    "code": "13",
                    "display": "Support OP Encounter"
                },
                "subject": {
                    "reference": "Patient/egxYhVDNeM1x1mDCNcXg08Q3",
                    "display": "Kidney, Kelly E"
                },
                "participant": [
                    {
                        "individual": {
                            "reference": "Practitioner/eM5CWtq15N0WJeuCet5bJlQ3",
                            "type": "Practitioner",
                            "display": "Physician Family Medicine, MD"
                        }
                    }
                ],
                "period": {
                    "start": "2012-10-28",
                    "end": "2012-10-28"
                }
            },
            "search": {
                "mode": "match"
            }
        },
        {
            "link": [
                {
                    "relation": "self",
                    "url": "https://appmarket.epic.com/interconnect-amcurprd-oauth/api/FHIR/R4/Encounter/eFEcCFJVOV.QjXqPx2K0aMQ3"
                }
            ],
            "fullUrl": "https://appmarket.epic.com/interconnect-amcurprd-oauth/api/FHIR/R4/Encounter/eFEcCFJVOV.QjXqPx2K0aMQ3",
            "resource": {
                "resourceType": "Encounter",
                "id": "eFEcCFJVOV.QjXqPx2K0aMQ3",
                "identifier": [
                    {
                        "use": "usual",
                        "system": "urn:oid:1.2.840.114350.1.13.0.1.7.3.698084.8",
                        "value": "7618"
                    }
                ],
                "status": "unknown",
                "class": {
                    "system": "urn:oid:1.2.840.114350.1.72.1.7.7.10.696784.13260",
                    "code": "13",
                    "display": "Support OP Encounter"
                },
                "subject": {
                    "reference": "Patient/egxYhVDNeM1x1mDCNcXg08Q3",
                    "display": "Kidney, Kelly E"
                },
                "participant": [
                    {
                        "individual": {
                            "reference": "Practitioner/eM5CWtq15N0WJeuCet5bJlQ3",
                            "type": "Practitioner",
                            "display": "Physician Family Medicine, MD"
                        }
                    }
                ],
                "period": {
                    "start": "2012-10-28",
                    "end": "2012-10-28"
                }
            },
            "search": {
                "mode": "match"
            }
        },
        {
            "link": [
                {
                    "relation": "self",
                    "url": "https://appmarket.epic.com/interconnect-amcurprd-oauth/api/FHIR/R4/Encounter/eA4CP5n6FBgun1l1tsGpGWg3"
                }
            ],
            "fullUrl": "https://appmarket.epic.com/interconnect-amcurprd-oauth/api/FHIR/R4/Encounter/eA4CP5n6FBgun1l1tsGpGWg3",
            "resource": {
                "resourceType": "Encounter",
                "id": "eA4CP5n6FBgun1l1tsGpGWg3",
                "identifier": [
                    {
                        "use": "usual",
                        "system": "urn:oid:1.2.840.114350.1.13.0.1.7.3.698084.8",
                        "value": "7619"
                    }
                ],
                "status": "unknown",
                "class": {
                    "system": "urn:oid:1.2.840.114350.1.72.1.7.7.10.696784.13260",
                    "code": "13",
                    "display": "Support OP Encounter"
                },
                "subject": {
                    "reference": "Patient/egxYhVDNeM1x1mDCNcXg08Q3",
                    "display": "Kidney, Kelly E"
                },
                "participant": [
                    {
                        "individual": {
                            "reference": "Practitioner/eM5CWtq15N0WJeuCet5bJlQ3",
                            "type": "Practitioner",
                            "display": "Physician Family Medicine, MD"
                        }
                    }
                ],
                "period": {
                    "start": "2012-10-28",
                    "end": "2012-10-28"
                }
            },
            "search": {
                "mode": "match"
            }
        },
        {
            "link": [
                {
                    "relation": "self",
                    "url": "https://appmarket.epic.com/interconnect-amcurprd-oauth/api/FHIR/R4/Encounter/eshH9zOhNm.FksEf3J985bQ3"
                }
            ],
            "fullUrl": "https://appmarket.epic.com/interconnect-amcurprd-oauth/api/FHIR/R4/Encounter/eshH9zOhNm.FksEf3J985bQ3",
            "resource": {
                "resourceType": "Encounter",
                "id": "eshH9zOhNm.FksEf3J985bQ3",
                "identifier": [
                    {
                        "use": "usual",
                        "system": "urn:oid:1.2.840.114350.1.13.0.1.7.3.698084.8",
                        "value": "7620"
                    }
                ],
                "status": "unknown",
                "class": {
                    "system": "urn:oid:1.2.840.114350.1.72.1.7.7.10.696784.13260",
                    "code": "13",
                    "display": "Support OP Encounter"
                },
                "subject": {
                    "reference": "Patient/egxYhVDNeM1x1mDCNcXg08Q3",
                    "display": "Kidney, Kelly E"
                },
                "period": {
                    "start": "2007-10-28",
                    "end": "2007-10-28"
                }
            },
            "search": {
                "mode": "match"
            }
        },
        {
            "link": [
                {
                    "relation": "self",
                    "url": "https://appmarket.epic.com/interconnect-amcurprd-oauth/api/FHIR/R4/EpisodeOfCare/e9-pOAfTF2YHptoO1RykFiA3"
                }
            ],
            "fullUrl": "https://appmarket.epic.com/interconnect-amcurprd-oauth/api/FHIR/R4/EpisodeOfCare/e9-pOAfTF2YHptoO1RykFiA3",
            "resource": {
                "resourceType": "EpisodeOfCare",
                "id": "e9-pOAfTF2YHptoO1RykFiA3",
                "extension": [
                    {
                        "valueString": "Kidney, Pancreas Transplant Waitlist - Qualified: 10/1/2013",
                        "url": "http://open.epic.com/FHIR/StructureDefinition/extension/episode-name"
                    },
                    {
                        "valueCodeableConcept": {
                            "coding": [
                                {
                                    "system": "urn:oid:1.2.840.114350.1.72.1.7.7.10.728366.30035",
                                    "code": "2",
                                    "display": "Recipient"
                                }
                            ],
                            "text": "Recipient"
                        },
                        "url": "http://open.epic.com/FHIR/StructureDefinition/extension/transplant-donor-or-recipient"
                    },
                    {
                        "extension": [
                            {
                                "valueCodeableConcept": {
                                    "coding": [
                                        {
                                            "system": "urn:oid:1.2.840.114350.1.72.1.7.7.10.728366.30030",
                                            "code": "16",
                                            "display": "Kidney"
                                        }
                                    ],
                                    "text": "Kidney"
                                },
                                "url": "organ-class"
                            },
                            {
                                "valueReference": {
                                    "reference": "Practitioner/e4fBRdwCD6bWDI76z9Bn9WA3",
                                    "type": "Practitioner",
                                    "display": "Coordinator Phoenix, RN"
                                },
                                "url": "coordinator"
                            }
                        ],
                        "url": "http://open.epic.com/FHIR/StructureDefinition/extension/transplant-organ-coordinator"
                    },
                    {
                        "extension": [
                            {
                                "valueCodeableConcept": {
                                    "coding": [
                                        {
                                            "system": "urn:oid:1.2.840.114350.1.72.1.7.7.10.728366.30030",
                                            "code": "4",
                                            "display": "Pancreas"
                                        }
                                    ],
                                    "text": "Pancreas"
                                },
                                "url": "organ-class"
                            },
                            {
                                "valueReference": {
                                    "reference": "Practitioner/e4fBRdwCD6bWDI76z9Bn9WA3",
                                    "type": "Practitioner",
                                    "display": "Coordinator Phoenix, RN"
                                },
                                "url": "coordinator"
                            }
                        ],
                        "url": "http://open.epic.com/FHIR/StructureDefinition/extension/transplant-organ-coordinator"
                    },
                    {
                        "extension": [
                            {
                                "valueCodeableConcept": {
                                    "coding": [
                                        {
                                            "system": "urn:oid:1.2.840.114350.1.72.1.7.7.10.728366.30105",
                                            "code": "30",
                                            "display": "Waitlist"
                                        }
                                    ],
                                    "text": "Waitlist"
                                },
                                "url": "phase"
                            },
                            {
                                "valueString": "Active",
                                "url": "status"
                            },
                            {
                                "valueDate": "2013-10-01",
                                "url": "effective"
                            }
                        ],
                        "url": "http://open.epic.com/FHIR/StructureDefinition/extension/transplant-phase-status"
                    },
                    {
                        "valueDate": "2013-09-09",
                        "url": "http://open.epic.com/FHIR/StructureDefinition/extension/transplant-event-referral-date"
                    },
                    {
                        "valuePeriod": {
                            "start": "2013-09-23",
                            "end": "2013-10-01"
                        },
                        "url": "http://open.epic.com/FHIR/StructureDefinition/extension/transplant-event-evaluation"
                    },
                    {
                        "valueDate": "2013-10-01",
                        "url": "http://open.epic.com/FHIR/StructureDefinition/extension/transplant-event-committee-review-date"
                    },
                    {
                        "valueDate": "2013-10-01",
                        "url": "http://open.epic.com/FHIR/StructureDefinition/extension/transplant-event-center-waitlist-date"
                    },
                    {
                        "valueDate": "2013-10-01",
                        "url": "http://open.epic.com/FHIR/StructureDefinition/extension/transplant-event-waitlist-date"
                    },
                    {
                        "valueString": "University of Wisconsin Hospital and Clinics (Madison, WI)",
                        "url": "http://open.epic.com/FHIR/StructureDefinition/extension/transplant-center"
                    },
                    {
                        "extension": [
                            {
                                "valueString": "CPRA",
                                "url": "description"
                            },
                            {
                                "valueString": "10",
                                "url": "score"
                            },
                            {
                                "valuePeriod": {
                                    "start": "2022-01-10"
                                },
                                "url": "effective"
                            }
                        ],
                        "url": "http://open.epic.com/FHIR/StructureDefinition/extension/transplant-waitlist-score"
                    }
                ],
                "status": "active",
                "type": [
                    {
                        "coding": [
                            {
                                "system": "urn:oid:1.2.840.114350.1.13.0.1.7.2.726668",
                                "code": "49",
                                "display": "Transplant"
                            },
                            {
                                "system": "urn:oid:1.2.840.114350.1.13.0.1.7.4.726668.130",
                                "code": "4",
                                "display": "Transplant"
                            }
                        ],
                        "text": "Transplant"
                    }
                ],
                "diagnosis": [
                    {
                        "condition": {
                            "reference": "Condition/e2lb4GyAXuaTbPtO0kvijYg3",
                            "type": "Condition",
                            "display": "ESRD (end stage renal disease) (CMS/HCC)"
                        }
                    },
                    {
                        "condition": {
                            "reference": "Condition/eijGjvNHYze-Zonu-jDaqFQ3",
                            "type": "Condition",
                            "display": "CKD (chronic kidney disease)"
                        }
                    },
                    {
                        "condition": {
                            "reference": "Condition/e76gj2oG7hHblBW.lVh7chA3",
                            "type": "Condition",
                            "display": "Vasculitis (Resolved)"
                        }
                    },
                    {
                        "condition": {
                            "reference": "Condition/eXQtonsA8sbawgs2xkIVa9Q3",
                            "type": "Condition",
                            "display": "RPGN (rapidly progressive glomerulonephritis)"
                        }
                    }
                ],
                "patient": {
                    "reference": "Patient/egxYhVDNeM1x1mDCNcXg08Q3",
                    "type": "Patient",
                    "display": "Kidney, Kelly E"
                },
                "period": {
                    "start": "2013-09-09"
                },
                "team": [
                    {
                        "reference": "CareTeam/eEJx1l5nU5e7aVWp2bNWUvgrxdVpQZZgvpOhb79.-it03",
                        "type": "CareTeam"
                    }
                ]
            },
            "search": {
                "mode": "include"
            }
        },
        {
            "link": [
                {
                    "relation": "self",
                    "url": "https://appmarket.epic.com/interconnect-amcurprd-oauth/api/FHIR/R4/Patient/egxYhVDNeM1x1mDCNcXg08Q3"
                }
            ],
            "fullUrl": "https://appmarket.epic.com/interconnect-amcurprd-oauth/api/FHIR/R4/Patient/egxYhVDNeM1x1mDCNcXg08Q3",
            "resource": {
                "resourceType": "Patient",
                "id": "egxYhVDNeM1x1mDCNcXg08Q3",
                "extension": [
                    {
                        "extension": [
                            {
                                "valueCoding": {
                                    "system": "urn:oid:2.16.840.1.113883.6.238",
                                    "code": "2106-3",
                                    "display": "White"
                                },
                                "url": "ombCategory"
                            },
                            {
                                "valueString": "White",
                                "url": "text"
                            }
                        ],
                        "url": "http://hl7.org/fhir/us/core/StructureDefinition/us-core-race"
                    },
                    {
                        "extension": [
                            {
                                "valueCoding": {
                                    "system": "urn:oid:2.16.840.1.113883.6.238",
                                    "code": "2186-5",
                                    "display": "Not Hispanic or Latino"
                                },
                                "url": "ombCategory"
                            },
                            {
                                "valueString": "Not Hispanic or Latino",
                                "url": "text"
                            }
                        ],
                        "url": "http://hl7.org/fhir/us/core/StructureDefinition/us-core-ethnicity"
                    },
                    {
                        "valueCodeableConcept": {
                            "coding": [
                                {
                                    "system": "urn:oid:1.2.840.114350.1.13.0.1.7.10.698084.130.657370.19999000",
                                    "code": "female",
                                    "display": "female"
                                }
                            ]
                        },
                        "url": "http://open.epic.com/FHIR/StructureDefinition/extension/legal-sex"
                    },
                    {
                        "valueCodeableConcept": {
                            "coding": [
                                {
                                    "system": "urn:oid:1.2.840.114350.1.13.0.1.7.10.698084.130.657370.19999000",
                                    "code": "female",
                                    "display": "female"
                                }
                            ]
                        },
                        "url": "http://open.epic.com/FHIR/StructureDefinition/extension/sex-for-clinical-use"
                    },
                    {
                        "valueCode": "F",
                        "url": "http://hl7.org/fhir/us/core/StructureDefinition/us-core-birthsex"
                    }
                ],
                "identifier": [
                    {
                        "use": "usual",
                        "system": "urn:oid:2.16.840.1.113883.4.1",
                        "value": "327-68-2508"
                    },
                    {
                        "use": "usual",
                        "type": {
                            "text": "CEID"
                        },
                        "system": "urn:epic:apporchard.curprod",
                        "value": "AO1LKM788V26XMN"
                    },
                    {
                        "use": "usual",
                        "type": {
                            "text": "EPIC"
                        },
                        "system": "urn:oid:1.2.840.114350.1.1",
                        "value": "E3335"
                    },
                    {
                        "use": "usual",
                        "type": {
                            "text": "EXTERNAL"
                        },
                        "system": "urn:oid:1.2.840.114350.1.13.0.1.7.2.698084",
                        "value": "Z4987"
                    },
                    {
                        "use": "usual",
                        "type": {
                            "text": "FHIR"
                        },
                        "system": "http://open.epic.com/FHIR/StructureDefinition/patient-dstu2-fhir-id",
                        "value": "TyTAPt0KpA6wi7i75YABcs2pZnjvCTKG9m0ZflZRmLE4B"
                    },
                    {
                        "use": "usual",
                        "type": {
                            "text": "FHIR STU3"
                        },
                        "system": "http://open.epic.com/FHIR/StructureDefinition/patient-fhir-id",
                        "value": "egxYhVDNeM1x1mDCNcXg08Q3"
                    },
                    {
                        "use": "usual",
                        "type": {
                            "text": "INTERNAL"
                        },
                        "system": "urn:oid:1.2.840.114350.1.13.0.1.7.2.698084",
                        "value": "     Z4987"
                    },
                    {
                        "use": "usual",
                        "type": {
                            "text": "MRN"
                        },
                        "system": "urn:oid:1.2.840.114350.1.13.0.1.7.5.737384.14",
                        "value": "203085"
                    },
                    {
                        "use": "usual",
                        "type": {
                            "text": "MYCHARTLOGIN"
                        },
                        "system": "urn:oid:1.2.840.114350.1.13.0.1.7.3.878082.110",
                        "value": "KIDNEYKELLYE"
                    },
                    {
                        "use": "usual",
                        "type": {
                            "text": "WPRINTERNAL"
                        },
                        "system": "urn:oid:1.2.840.114350.1.13.0.1.7.2.878082",
                        "value": "302"
                    }
                ],
                "active": true,
                "name": [
                    {
                        "use": "official",
                        "text": "Kelly E Kidney",
                        "family": "Kidney",
                        "given": [
                            "Kelly",
                            "E"
                        ]
                    },
                    {
                        "use": "usual",
                        "text": "Kelly E Kidney",
                        "family": "Kidney",
                        "given": [
                            "Kelly",
                            "E"
                        ]
                    }
                ],
                "telecom": [
                    {
                        "system": "phone",
                        "value": "608-555-6666",
                        "use": "home"
                    }
                ],
                "gender": "female",
                "birthDate": "1960-09-08",
                "deceasedBoolean": false,
                "address": [
                    {
                        "use": "home",
                        "line": [
                            "456 Allen St."
                        ],
                        "city": "Madison",
                        "district": "DANE",
                        "state": "WI",
                        "postalCode": "53726",
                        "country": "US"
                    }
                ],
                "maritalStatus": {
                    "text": "Married"
                },
                "contact": [
                    {
                        "relationship": [
                            {
                                "coding": [
                                    {
                                        "system": "http://terminology.hl7.org/CodeSystem/v2-0131",
                                        "code": "C",
                                        "display": "Emergency Contact"
                                    },
                                    {
                                        "system": "urn:oid:1.2.840.114350.1.13.0.1.7.4.827665.1000",
                                        "code": "17",
                                        "display": "Spouse"
                                    }
                                ],
                                "text": "Spouse"
                            }
                        ],
                        "name": {
                            "use": "usual",
                            "text": "Kidney,Kurt"
                        },
                        "telecom": [
                            {
                                "system": "phone",
                                "value": "608-555-6666",
                                "use": "home"
                            }
                        ]
                    }
                ],
                "communication": [
                    {
                        "language": {
                            "coding": [
                                {
                                    "system": "urn:ietf:bcp:47",
                                    "code": "en",
                                    "display": "English"
                                }
                            ],
                            "text": "English"
                        },
                        "preferred": true
                    }
                ],
                "generalPractitioner": [
                    {
                        "reference": "Practitioner/eM5CWtq15N0WJeuCet5bJlQ3",
                        "type": "Practitioner",
                        "display": "Physician Family Medicine, MD"
                    }
                ],
                "managingOrganization": {
                    "reference": "Organization/enRyWnSP963FYDpoks4NHOA3",
                    "display": "Epic Hospital System"
                }
            },
            "search": {
                "mode": "include"
            }
        }
    ]
}