{
    "resourceType": "Bundle",
    "type": "searchset",
    "total": 66,
    "link": [
        {
            "relation": "self",
            "url": "https://appmarket.epic.com/interconnect-amcurprd-oauth/api/FHIR/R4/Encounter?_include=Encounter:condition&_include=Encounter:episodeOfCare&_include=Encounter:partOf&_include=Encounter:subject&_format=json&patient=edPhy6QzpBNcrE8fup25I9A3"
        }
    ],
    "entry": [
        {
            "link": [
                {
                    "relation": "self",
                    "url": "https://appmarket.epic.com/interconnect-amcurprd-oauth/api/FHIR/R4/Encounter/ey8SfGPPTx.v9B3y0DTLeIQ3"
                }
            ],
            "fullUrl": "https://appmarket.epic.com/interconnect-amcurprd-oauth/api/FHIR/R4/Encounter/ey8SfGPPTx.v9B3y0DTLeIQ3",
            "resource": {
                "resourceType": "Encounter",
                "id": "ey8SfGPPTx.v9B3y0DTLeIQ3",
                "identifier": [
                    {
                        "use": "usual",
                        "system": "urn:oid:1.2.840.114350.1.13.0.1.7.3.698084.8",
                        "value": "20096"
                    }
                ],
                "status": "finished",
                "class": {
                    "system": "urn:oid:1.2.840.114350.1.72.1.7.7.10.696784.13260",
                    "code": "13",
                    "display": "Support OP Encounter"
                },
                "type": [
                    {
                        "coding": [
                            {
                                "system": "urn:oid:1.2.840.114350.1.13.0.1.7.10.698084.30",
                                "code": "111",
                                "display": "Orders Only"
                            }
                        ],
                        "text": "Orders Only"
                    }
                ],
                "subject": {
                    "reference": "Patient/edPhy6QzpBNcrE8fup25I9A3",
                    "display": "Beacon, Portia"
                },
                "episodeOfCare": [
                    {
                        "reference": "EpisodeOfCare/e5-kGqBTSPVp3TaaY-FlmLA3",
                        "type": "EpisodeOfCare",
                        "display": "ONCOLOGY TREATMENT"
                    }
                ],
                "participant": [
                    {
                        "individual": {
                            "reference": "Practitioner/eM5CWtq15N0WJeuCet5bJlQ3",
                            "type": "Practitioner",
                            "display": "Physician Family Medicine, MD"
                        }
                    }
                ],
                "period": {
                    "start": "2014-10-09",
                    "end": "2014-10-09"
                },
                "location": [
                    {
                        "location": {
                            "reference": "Location/eIFJdH1hm1mbcKtakI4NHq27tpuUFeCGavbGSaa6v1os3",
                            "display": "EMH Oncology Clinic"
                        }
                    }
                ]
            },
            "search": {
                "mode": "match"
            }
        },
        {
            "link": [
                {
                    "relation": "self",
                    "url": "https://appmarket.epic.com/interconnect-amcurprd-oauth/api/FHIR/R4/Encounter/erE3BaVcOiFEJtlVgt347Eg3"
                }
            ],
            "fullUrl": "https://appmarket.epic.com/interconnect-amcurprd-oauth/api/FHIR/R4/Encounter/erE3BaVcOiFEJtlVgt347Eg3",
            "resource": {
                "resourceType": "Encounter",
                "id": "erE3BaVcOiFEJtlVgt347Eg3",
                "identifier": [
                    {
                        "use": "usual",
                        "system": "urn:oid:1.2.840.114350.1.13.0.1.7.3.698084.8",
                        "value": "1253"
                    }
                ],
                "status": "finished",
                "class": {
                    "system": "urn:oid:1.2.840.114350.1.72.1.7.7.10.696784.13260",
                    "code": "13",
                    "display": "Support OP Encounter"
                },
                "type": [
                    {
                        "coding": [
                            {
                                "system": "urn:oid:1.2.840.114350.1.13.0.1.7.10.698084.30",
                                "code": "111",
                                "display": "Orders Only"
                            }
                        ],
                        "text": "Orders Only"
                    }
                ],
                "subject": {
                    "reference": "Patient/edPhy6QzpBNcrE8fup25I9A3",
                    "display": "Beacon, Portia"
                },
                "episodeOfCare": [
                    {
                        "reference": "EpisodeOfCare/e5-kGqBTSPVp3TaaY-FlmLA3",
                        "type": "EpisodeOfCare",
                        "display": "ONCOLOGY TREATMENT"
                    }
                ],
                "participant": [
                    {
                        "individual": {
                            "reference": "Practitioner/eM5CWtq15N0WJeuCet5bJlQ3",
                            "type": "Practitioner",
                            "display": "Physician Family Medicine, MD"
                        }
                    }
                ],
                "period": {
                    "start": "2013-09-12",
                    "end": "2013-09-12"
                },
                "location": [
                    {
                        "location": {
                            "reference": "Location/eUkRLjoR5rbU.ZJMq6HpRHRBoag3DghclLPf53fcA8.g3",
                            "display": "EMC Oncology Clinic"
                        }
                    }
                ]
            },
            "search": {
                "mode": "match"
            }
        },
        {
            "link": [
                {
                    "relation": "self",
                    "url": "https://appmarket.epic.com/interconnect-amcurprd-oauth/api/FHIR/R4/Encounter/ej-CiFYMLBTwoHK8g0wXLhQ3"
                }
            ],
            "fullUrl": "https://appmarket.epic.com/interconnect-amcurprd-oauth/api/FHIR/R4/Encounter/ej-CiFYMLBTwoHK8g0wXLhQ3",
            "resource": {
                "resourceType": "Encounter",
                "id": "ej-CiFYMLBTwoHK8g0wXLhQ3",
                "identifier": [
                    {
                        "use": "usual",
                        "system": "urn:oid:1.2.840.114350.1.13.0.1.7.3.698084.8",
                        "value": "1255"
                    }
                ],
                "status": "in-progress",
                "class": {
                    "system": "urn:oid:1.2.840.114350.1.72.1.7.7.10.696784.13260",
                    "code": "4",
                    "display": "HOV"
                },
                "type": [
                    {
                        "coding": [
                            {
                                "system": "urn:oid:1.2.840.114350.1.13.0.1.7.10.698084.10110",
                                "code": "102",
                                "display": "Outpatient"
                            }
                        ],
                        "text": "Outpatient"
                    },
                    {
                        "coding": [
                            {
                                "system": "urn:oid:1.2.840.114350.1.13.0.1.7.10.698084.30",
                                "code": "3",
                                "display": "Hospital Encounter"
                            }
                        ],
                        "text": "Hospital Encounter"
                    },
                    {
                        "coding": [
                            {
                                "system": "urn:oid:1.2.840.114350.1.13.0.1.7.2.808267",
                                "code": "1001",
                                "display": "Consultation"
                            }
                        ],
                        "text": "Consultation"
                    },
                    {
                        "coding": [
                            {
                                "system": "urn:oid:1.2.840.114350.1.13.0.1.7.10.698084.18875",
                                "code": "2",
                                "display": "Urgent"
                            }
                        ],
                        "text": "Urgent"
                    }
                ],
                "subject": {
                    "reference": "Patient/edPhy6QzpBNcrE8fup25I9A3",
                    "display": "Beacon, Portia"
                },
                "participant": [
                    {
                        "period": {
                            "start": "2013-07-29T17:00:00Z",
                            "end": "2013-07-29T17:30:00Z"
                        },
                        "individual": {
                            "reference": "Practitioner/ec30Z4SAQpUQUkACxUZVihQ3",
                            "display": "Physician Beacon, MD"
                        }
                    }
                ],
                "period": {
                    "start": "2013-07-29T17:00:00Z"
                },
                "reasonCode": [
                    {
                        "coding": [
                            {
                                "system": "urn:oid:1.2.840.114350.1.13.0.1.7.2.728286",
                                "code": "160078",
                                "display": "Breast Mass"
                            }
                        ],
                        "text": "Breast Mass"
                    }
                ],
                "account": [
                    {
                        "identifier": {
                            "system": "urn:oid:1.2.840.114350.1.13.0.1.7.2.726582",
                            "value": "39"
                        },
                        "display": "BEACON,PORTIA"
                    }
                ],
                "hospitalization": {
                    "extension": [
                        {
                            "valueDateTime": "2013-07-29T17:00:00Z",
                            "url": "http://open.epic.com/FHIR/StructureDefinition/extension/observation-datetime"
                        }
                    ],
                    "admitSource": {
                        "coding": [
                            {
                                "system": "urn:oid:1.2.840.114350.1.13.0.1.7.10.698084.10310",
                                "code": "2",
                                "display": "Physician or Clinic Office"
                            }
                        ],
                        "text": "Physician or Clinic Office"
                    }
                },
                "location": [
                    {
                        "location": {
                            "reference": "Location/eIFJdH1hm1mbcKtakI4NHq27tpuUFeCGavbGSaa6v1os3",
                            "display": "EMH Oncology Clinic"
                        }
                    },
                    {
                        "location": {
                            "reference": "Location/eIFJdH1hm1mbcKtakI4NHq27tpuUFeCGavbGSaa6v1os3",
                            "display": "EMH Oncology Clinic"
                        }
                    },
                    {
                        "location": {
                            "reference": "Location/eQSOrLdbVrMRc68KBcTBG4A3",
                            "display": "Epic Hospital System"
                        }
                    }
                ]
            },
            "search": {
                "mode": "match"
            }
        },
        {
            "link": [
                {
                    "relation": "self",
                    "url": "https://appmarket.epic.com/interconnect-amcurprd-oauth/api/FHIR/R4/Encounter/edIrSsX7cn0vcGjSCOxJUZA3"
                }
            ],
            "fullUrl": "https://appmarket.epic.com/interconnect-amcurprd-oauth/api/FHIR/R4/Encounter/edIrSsX7cn0vcGjSCOxJUZA3",
            "resource": {
                "resourceType": "Encounter",
                "id": "edIrSsX7cn0vcGjSCOxJUZA3",
                "identifier": [
                    {
                        "use": "usual",
                        "system": "urn:oid:1.2.840.114350.1.13.0.1.7.3.698084.8",
                        "value": "1256"
                    }
                ],
                "status": "arrived",
                "class": {
                    "system": "urn:oid:1.2.840.114350.1.72.1.7.7.10.696784.13260",
                    "code": "5",
                    "display": "Appointment"
                },
                "type": [
                    {
                        "coding": [
                            {
                                "system": "urn:oid:1.2.840.114350.1.13.0.1.7.10.698084.30",
                                "code": "101",
                                "display": "Office Visit"
                            }
                        ],
                        "text": "Office Visit"
                    },
                    {
                        "coding": [
                            {
                                "system": "urn:oid:1.2.840.114350.1.13.0.1.7.2.808267",
                                "code": "1004",
                                "display": "Office Visit"
                            }
                        ],
                        "text": "Office Visit"
                    }
                ],
                "subject": {
                    "reference": "Patient/edPhy6QzpBNcrE8fup25I9A3",
                    "display": "Beacon, Portia"
                },
                "participant": [
                    {
                        "period": {
                            "start": "2013-06-29T18:00:00Z",
                            "end": "2013-06-29T18:15:00Z"
                        },
                        "individual": {
                            "reference": "Practitioner/eM5CWtq15N0WJeuCet5bJlQ3",
                            "display": "Physician Family Medicine, MD"
                        }
                    }
                ],
                "period": {
                    "start": "2013-06-29T18:00:00Z",
                    "end": "2013-06-29T18:15:00Z"
                },
                "reasonCode": [
                    {
                        "coding": [
                            {
                                "system": "urn:oid:1.2.840.114350.1.13.0.1.7.2.728286",
                                "code": "16",
                                "display": "Breast Problem"
                            }
                        ],
                        "text": "Breast Problem"
                    }
                ],
                "location": [
                    {
                        "location": {
                            "reference": "Location/e4W4rmGe9QzuGm2Dy4NBqVc0KDe6yGld6HW95UuN-Qd03",
                            "display": "EMC Family Medicine"
                        }
                    }
                ]
            },
            "search": {
                "mode": "match"
            }
        },
        {
            "link": [
                {
                    "relation": "self",
                    "url": "https://appmarket.epic.com/interconnect-amcurprd-oauth/api/FHIR/R4/Encounter/eI--m4lGC8JW2VuhyKMwO.w3"
                }
            ],
            "fullUrl": "https://appmarket.epic.com/interconnect-amcurprd-oauth/api/FHIR/R4/Encounter/eI--m4lGC8JW2VuhyKMwO.w3",
            "resource": {
                "resourceType": "Encounter",
                "id": "eI--m4lGC8JW2VuhyKMwO.w3",
                "identifier": [
                    {
                        "use": "usual",
                        "system": "urn:oid:1.2.840.114350.1.13.0.1.7.3.698084.8",
                        "value": "1257"
                    }
                ],
                "status": "arrived",
                "class": {
                    "system": "urn:oid:1.2.840.114350.1.72.1.7.7.10.696784.13260",
                    "code": "5",
                    "display": "Appointment"
                },
                "type": [
                    {
                        "coding": [
                            {
                                "system": "urn:oid:1.2.840.114350.1.13.0.1.7.10.698084.30",
                                "code": "101",
                                "display": "Office Visit"
                            }
                        ],
                        "text": "Office Visit"
                    },
                    {
                        "coding": [
                            {
                                "system": "urn:oid:1.2.840.114350.1.13.0.1.7.2.808267",
                                "code": "1004",
                                "display": "Office Visit"
                            }
                        ],
                        "text": "Office Visit"
                    }
                ],
                "subject": {
                    "reference": "Patient/edPhy6QzpBNcrE8fup25I9A3",
                    "display": "Beacon, Portia"
                },
                "participant": [
                    {
                        "period": {
                            "start": "2013-04-30T17:45:00Z",
                            "end": "2013-04-30T18:00:00Z"
                        },
                        "individual": {
                            "reference": "Practitioner/eM5CWtq15N0WJeuCet5bJlQ3",
                            "display": "Physician Family Medicine, MD"
                        }
                    }
                ],
                "period": {
                    "start": "2013-04-30T17:45:00Z",
                    "end": "2013-04-30T18:00:00Z"
                },
                "reasonCode": [
                    {
                        "coding": [
                            {
                                "system": "urn:oid:1.2.840.114350.1.13.0.1.7.2.728286",
                                "code": "83",
                                "display": "Annual Exam"
                            }
                        ],
                        "text": "Annual Exam"
                    },
                    {
                        "coding": [
                            {
                                "system": "urn:oid:1.2.840.114350.1.13.0.1.7.2.728286",
                                "code": "160698",
                                "display": "Migraine"
                            }
                        ],
                        "text": "Migraine"
                    }
                ],
                "location": [
                    {
                        "location": {
                            "reference": "Location/e4W4rmGe9QzuGm2Dy4NBqVc0KDe6yGld6HW95UuN-Qd03",
                            "display": "EMC Family Medicine"
                        }
                    }
                ]
            },
            "search": {
                "mode": "match"
            }
        },
        {
            "link": [
                {
                    "relation": "self",
                    "url": "https://appmarket.epic.com/interconnect-amcurprd-oauth/api/FHIR/R4/Encounter/eQRdrkTGqjuxFe8JKPTBDWg3"
                }
            ],
            "fullUrl": "https://appmarket.epic.com/interconnect-amcurprd-oauth/api/FHIR/R4/Encounter/eQRdrkTGqjuxFe8JKPTBDWg3",
            "resource": {
                "resourceType": "Encounter",
                "id": "eQRdrkTGqjuxFe8JKPTBDWg3",
                "identifier": [
                    {
                        "use": "usual",
                        "system": "urn:oid:1.2.840.114350.1.13.0.1.7.3.698084.8",
                        "value": "1258"
                    }
                ],
                "status": "arrived",
                "class": {
                    "system": "urn:oid:1.2.840.114350.1.72.1.7.7.10.696784.13260",
                    "code": "5",
                    "display": "Appointment"
                },
                "type": [
                    {
                        "coding": [
                            {
                                "system": "urn:oid:1.2.840.114350.1.13.0.1.7.10.698084.30",
                                "code": "101",
                                "display": "Office Visit"
                            }
                        ],
                        "text": "Office Visit"
                    },
                    {
                        "coding": [
                            {
                                "system": "urn:oid:1.2.840.114350.1.13.0.1.7.2.808267",
                                "code": "1004",
                                "display": "Office Visit"
                            }
                        ],
                        "text": "Office Visit"
                    }
                ],
                "subject": {
                    "reference": "Patient/edPhy6QzpBNcrE8fup25I9A3",
                    "display": "Beacon, Portia"
                },
                "participant": [
                    {
                        "period": {
                            "start": "2012-05-04T17:30:00Z",
                            "end": "2012-05-04T17:45:00Z"
                        },
                        "individual": {
                            "reference": "Practitioner/eM5CWtq15N0WJeuCet5bJlQ3",
                            "display": "Physician Family Medicine, MD"
                        }
                    }
                ],
                "period": {
                    "start": "2012-05-04T17:30:00Z",
                    "end": "2012-05-04T17:45:00Z"
                },
                "reasonCode": [
                    {
                        "coding": [
                            {
                                "system": "urn:oid:1.2.840.114350.1.13.0.1.7.2.728286",
                                "code": "83",
                                "display": "Annual Exam"
                            }
                        ],
                        "text": "Annual Exam"
                    }
                ],
                "location": [
                    {
                        "location": {
                            "reference": "Location/e4W4rmGe9QzuGm2Dy4NBqVc0KDe6yGld6HW95UuN-Qd03",
                            "display": "EMC Family Medicine"
                        }
                    }
                ]
            },
            "search": {
                "mode": "match"
            }
        },
        {
            "link": [
                {
                    "relation": "self",
                    "url": "https://appmarket.epic.com/interconnect-amcurprd-oauth/api/FHIR/R4/Encounter/eOQfB.PHD.5wJveEQwv0Clg3"
                }
            ],
            "fullUrl": "https://appmarket.epic.com/interconnect-amcurprd-oauth/api/FHIR/R4/Encounter/eOQfB.PHD.5wJveEQwv0Clg3",
            "resource": {
                "resourceType": "Encounter",
                "id": "eOQfB.PHD.5wJveEQwv0Clg3",
                "identifier": [
                    {
                        "use": "usual",
                        "system": "urn:oid:1.2.840.114350.1.13.0.1.7.3.698084.8",
                        "value": "1259"
                    }
                ],
                "status": "unknown",
                "class": {
                    "system": "urn:oid:1.2.840.114350.1.72.1.7.7.10.696784.13260",
                    "code": "13",
                    "display": "Support OP Encounter"
                },
                "subject": {
                    "reference": "Patient/edPhy6QzpBNcrE8fup25I9A3",
                    "display": "Beacon, Portia"
                },
                "participant": [
                    {
                        "individual": {
                            "reference": "Practitioner/eM5CWtq15N0WJeuCet5bJlQ3",
                            "type": "Practitioner",
                            "display": "Physician Family Medicine, MD"
                        }
                    }
                ],
                "period": {
                    "start": "2011-09-08",
                    "end": "2011-09-08"
                }
            },
            "search": {
                "mode": "match"
            }
        },
        {
            "link": [
                {
                    "relation": "self",
                    "url": "https://appmarket.epic.com/interconnect-amcurprd-oauth/api/FHIR/R4/Encounter/eF5m6SCjcnK38B-1nZ-VnZg3"
                }
            ],
            "fullUrl": "https://appmarket.epic.com/interconnect-amcurprd-oauth/api/FHIR/R4/Encounter/eF5m6SCjcnK38B-1nZ-VnZg3",
            "resource": {
                "resourceType": "Encounter",
                "id": "eF5m6SCjcnK38B-1nZ-VnZg3",
                "identifier": [
                    {
                        "use": "usual",
                        "system": "urn:oid:1.2.840.114350.1.13.0.1.7.3.698084.8",
                        "value": "1260"
                    }
                ],
                "status": "unknown",
                "class": {
                    "system": "urn:oid:1.2.840.114350.1.72.1.7.7.10.696784.13260",
                    "code": "13",
                    "display": "Support OP Encounter"
                },
                "subject": {
                    "reference": "Patient/edPhy6QzpBNcrE8fup25I9A3",
                    "display": "Beacon, Portia"
                },
                "participant": [
                    {
                        "individual": {
                            "reference": "Practitioner/eM5CWtq15N0WJeuCet5bJlQ3",
                            "type": "Practitioner",
                            "display": "Physician Family Medicine, MD"
                        }
                    }
                ],
                "period": {
                    "start": "2011-09-08",
                    "end": "2011-09-08"
                }
            },
            "search": {
                "mode": "match"
            }
        },
        {
            "link": [
                {
                    "relation": "self",
                    "url": "https://appmarket.epic.com/interconnect-amcurprd-oauth/api/FHIR/R4/Encounter/e7LwPyRId-otSVfY5tT6b0w3"
                }
            ],
            "fullUrl": "https://appmarket.epic.com/interconnect-amcurprd-oauth/api/FHIR/R4/Encounter/e7LwPyRId-otSVfY5tT6b0w3",
            "resource": {
                "resourceType": "Encounter",
                "id": "e7LwPyRId-otSVfY5tT6b0w3",
                "identifier": [
                    {
                        "use": "usual",
                        "system": "urn:oid:1.2.840.114350.1.13.0.1.7.3.698084.8",
                        "value": "1261"
                    }
                ],
                "status": "unknown",
                "class": {
                    "system": "urn:oid:1.2.840.114350.1.72.1.7.7.10.696784.13260",
                    "code": "13",
                    "display": "Support OP Encounter"
                },
                "subject": {
                    "reference": "Patient/edPhy6QzpBNcrE8fup25I9A3",
                    "display": "Beacon, Portia"
                },
                "participant": [
                    {
                        "individual": {
                            "reference": "Practitioner/eM5CWtq15N0WJeuCet5bJlQ3",
                            "type": "Practitioner",
                            "display": "Physician Family Medicine, MD"
                        }
                    }
                ],
                "period": {
                    "start": "2011-08-09",
                    "end": "2011-08-09"
                }
            },
            "search": {
                "mode": "match"
            }
        },
        {
            "link": [
                {
                    "relation": "self",
                    "url": "https://appmarket.epic.com/interconnect-amcurprd-oauth/api/FHIR/R4/Encounter/e2tTB-OFZ0KkhSuytPIi1Ug3"
                }
            ],
            "fullUrl": "https://appmarket.epic.com/interconnect-amcurprd-oauth/api/FHIR/R4/Encounter/e2tTB-OFZ0KkhSuytPIi1Ug3",
            "resource": {
                "resourceType": "Encounter",
                "id": "e2tTB-OFZ0KkhSuytPIi1Ug3",
                "identifier": [
                    {
                        "use": "usual",
                        "system": "urn:oid:1.2.840.114350.1.13.0.1.7.3.698084.8",
                        "value": "1262"
                    }
                ],
                "status": "unknown",
                "class": {
                    "system": "urn:oid:1.2.840.114350.1.72.1.7.7.10.696784.13260",
                    "code": "13",
                    "display": "Support OP Encounter"
                },
                "subject": {
                    "reference": "Patient/edPhy6QzpBNcrE8fup25I9A3",
                    "display": "Beacon, Portia"
                },
                "participant": [
                    {
                        "individual": {
                            "reference": "Practitioner/eM5CWtq15N0WJeuCet5bJlQ3",
                            "type": "Practitioner",
                            "display": "Physician Family Medicine, MD"
                        }
                    }
                ],
                "period": {
                    "start": "2011-06-10",
                    "end": "2011-06-10"
                }
            },
            "search": {
                "mode": "match"
            }
        },
        {
            "link": [
                {
                    "relation": "self",
                    "url": "https://appmarket.epic.com/interconnect-amcurprd-oauth/api/FHIR/R4/Encounter/ehF32hJ1oft6Fl2XRo2fD8A3"
                }
            ],
            "fullUrl": "https://appmarket.epic.com/interconnect-amcurprd-oauth/api/FHIR/R4/Encounter/ehF32hJ1oft6Fl2XRo2fD8A3",
            "resource": {
                "resourceType": "Encounter",
                "id": "ehF32hJ1oft6Fl2XRo2fD8A3",
                "identifier": [
                    {
                        "use": "usual",
                        "system": "urn:oid:1.2.840.114350.1.13.0.1.7.3.698084.8",
                        "value": "1263"
                    }
                ],
                "status": "arrived",
                "class": {
                    "system": "urn:oid:1.2.840.114350.1.72.1.7.7.10.696784.13260",
                    "code": "5",
                    "display": "Appointment"
                },
                "type": [
                    {
                        "coding": [
                            {
                                "system": "urn:oid:1.2.840.114350.1.13.0.1.7.10.698084.30",
                                "code": "101",
                                "display": "Office Visit"
                            }
                        ],
                        "text": "Office Visit"
                    },
                    {
                        "coding": [
                            {
                                "system": "urn:oid:1.2.840.114350.1.13.0.1.7.2.808267",
                                "code": "1004",
                                "display": "Office Visit"
                            }
                        ],
                        "text": "Office Visit"
                    }
                ],
                "subject": {
                    "reference": "Patient/edPhy6QzpBNcrE8fup25I9A3",
                    "display": "Beacon, Portia"
                },
                "participant": [
                    {
                        "period": {
                            "start": "2011-05-03T16:45:00Z",
                            "end": "2011-05-03T17:00:00Z"
                        },
                        "individual": {
                            "reference": "Practitioner/eM5CWtq15N0WJeuCet5bJlQ3",
                            "display": "Physician Family Medicine, MD"
                        }
                    }
                ],
                "period": {
                    "start": "2011-05-03T16:45:00Z",
                    "end": "2011-05-03T17:00:00Z"
                },
                "reasonCode": [
                    {
                        "coding": [
                            {
                                "system": "urn:oid:1.2.840.114350.1.13.0.1.7.2.728286",
                                "code": "83",
                                "display": "Annual Exam"
                            }
                        ],
                        "text": "Annual Exam"
                    }
                ],
                "location": [
                    {
                        "location": {
                            "reference": "Location/e4W4rmGe9QzuGm2Dy4NBqVc0KDe6yGld6HW95UuN-Qd03",
                            "display": "EMC Family Medicine"
                        }
                    }
                ]
            },
            "search": {
                "mode": "match"
            }
        },
        {
            "link": [
                {
                    "relation": "self",
                    "url": "https://appmarket.epic.com/interconnect-amcurprd-oauth/api/FHIR/R4/Encounter/e5z.TEe987nmtFUgn3zEn1w3"
                }
            ],
            "fullUrl": "https://appmarket.epic.com/interconnect-amcurprd-oauth/api/FHIR/R4/Encounter/e5z.TEe987nmtFUgn3zEn1w3",
            "resource": {
                "resourceType": "Encounter",
                "id": "e5z.TEe987nmtFUgn3zEn1w3",
                "identifier": [
                    {
                        "use": "usual",
                        "system": "urn:oid:1.2.840.114350.1.13.0.1.7.3.698084.8",
                        "value": "1264"
                    }
                ],
                "status": "finished",
                "class": {
                    "system": "urn:oid:1.2.840.114350.1.72.1.7.7.10.696784.13260",
                    "code": "13",
                    "display": "Support OP Encounter"
                },
                "type": [
                    {
                        "coding": [
                            {
                                "system": "urn:oid:1.2.840.114350.1.13.0.1.7.10.698084.30",
                                "code": "107",
                                "display": "Refill"
                            }
                        ],
                        "text": "Refill"
                    }
                ],
                "subject": {
                    "reference": "Patient/edPhy6QzpBNcrE8fup25I9A3",
                    "display": "Beacon, Portia"
                },
                "participant": [
                    {
                        "individual": {
                            "reference": "Practitioner/eM5CWtq15N0WJeuCet5bJlQ3",
                            "type": "Practitioner",
                            "display": "Physician Family Medicine, MD"
                        }
                    }
                ],
                "period": {
                    "start": "2011-03-24",
                    "end": "2011-03-24"
                },
                "reasonCode": [
                    {
                        "coding": [
                            {
                                "system": "urn:oid:1.2.840.114350.1.13.0.1.7.2.728286",
                                "code": "160383",
                                "display": "Med Refill"
                            }
                        ],
                        "text": "Med Refill"
                    }
                ],
                "location": [
                    {
                        "location": {
                            "reference": "Location/e4W4rmGe9QzuGm2Dy4NBqVc0KDe6yGld6HW95UuN-Qd03",
                            "display": "EMC Family Medicine"
                        }
                    }
                ]
            },
            "search": {
                "mode": "match"
            }
        },
        {
            "link": [
                {
                    "relation": "self",
                    "url": "https://appmarket.epic.com/interconnect-amcurprd-oauth/api/FHIR/R4/Encounter/eBtccO-HJORr4zByvz7i3VQ3"
                }
            ],
            "fullUrl": "https://appmarket.epic.com/interconnect-amcurprd-oauth/api/FHIR/R4/Encounter/eBtccO-HJORr4zByvz7i3VQ3",
            "resource": {
                "resourceType": "Encounter",
                "id": "eBtccO-HJORr4zByvz7i3VQ3",
                "identifier": [
                    {
                        "use": "usual",
                        "system": "urn:oid:1.2.840.114350.1.13.0.1.7.3.698084.8",
                        "value": "1265"
                    }
                ],
                "status": "unknown",
                "class": {
                    "system": "urn:oid:1.2.840.114350.1.72.1.7.7.10.696784.13260",
                    "code": "13",
                    "display": "Support OP Encounter"
                },
                "subject": {
                    "reference": "Patient/edPhy6QzpBNcrE8fup25I9A3",
                    "display": "Beacon, Portia"
                },
                "participant": [
                    {
                        "individual": {
                            "reference": "Practitioner/eM5CWtq15N0WJeuCet5bJlQ3",
                            "type": "Practitioner",
                            "display": "Physician Family Medicine, MD"
                        }
                    }
                ],
                "period": {
                    "start": "2011-01-09",
                    "end": "2011-01-09"
                }
            },
            "search": {
                "mode": "match"
            }
        },
        {
            "link": [
                {
                    "relation": "self",
                    "url": "https://appmarket.epic.com/interconnect-amcurprd-oauth/api/FHIR/R4/Encounter/etGyQ6NnsZfwKXlTookoeiA3"
                }
            ],
            "fullUrl": "https://appmarket.epic.com/interconnect-amcurprd-oauth/api/FHIR/R4/Encounter/etGyQ6NnsZfwKXlTookoeiA3",
            "resource": {
                "resourceType": "Encounter",
                "id": "etGyQ6NnsZfwKXlTookoeiA3",
                "identifier": [
                    {
                        "use": "usual",
                        "system": "urn:oid:1.2.840.114350.1.13.0.1.7.3.698084.8",
                        "value": "1266"
                    }
                ],
                "status": "unknown",
                "class": {
                    "system": "urn:oid:1.2.840.114350.1.72.1.7.7.10.696784.13260",
                    "code": "13",
                    "display": "Support OP Encounter"
                },
                "subject": {
                    "reference": "Patient/edPhy6QzpBNcrE8fup25I9A3",
                    "display": "Beacon, Portia"
                },
                "participant": [
                    {
                        "individual": {
                            "reference": "Practitioner/eM5CWtq15N0WJeuCet5bJlQ3",
                            "type": "Practitioner",
                            "display": "Physician Family Medicine, MD"
                        }
                    }
                ],
                "period": {
                    "start": "2011-01-09",
                    "end": "2011-01-09"
                }
            },
            "search": {
                "mode": "match"
            }
        },
        {
            "link": [
                {
                    "relation": "self",
                    "url": "https://appmarket.epic.com/interconnect-amcurprd-oauth/api/FHIR/R4/Encounter/e.DZ8FvbKf4AezUzad6jmPA3"
                }
            ],
            "fullUrl": "https://appmarket.epic.com/interconnect-amcurprd-oauth/api/FHIR/R4/Encounter/e.DZ8FvbKf4AezUzad6jmPA3",
            "resource": {
                "resourceType": "Encounter",
                "id": "e.DZ8FvbKf4AezUzad6jmPA3",
                "identifier": [
                    {
                        "use": "usual",
                        "system": "urn:oid:1.2.840.114350.1.13.0.1.7.3.698084.8",
                        "value": "1267"
                    }
                ],
                "status": "unknown",
                "class": {
                    "system": "urn:oid:1.2.840.114350.1.72.1.7.7.10.696784.13260",
                    "code": "13",
                    "display": "Support OP Encounter"
                },
                "subject": {
                    "reference": "Patient/edPhy6QzpBNcrE8fup25I9A3",
                    "display": "Beacon, Portia"
                },
                "participant": [
                    {
                        "individual": {
                            "reference": "Practitioner/eM5CWtq15N0WJeuCet5bJlQ3",
                            "type": "Practitioner",
                            "display": "Physician Family Medicine, MD"
                        }
                    }
                ],
                "period": {
                    "start": "2010-12-10",
                    "end": "2010-12-10"
                }
            },
            "search": {
                "mode": "match"
            }
        },
        {
            "link": [
                {
                    "relation": "self",
                    "url": "https://appmarket.epic.com/interconnect-amcurprd-oauth/api/FHIR/R4/Encounter/eUOOe6dUik2z5t6sWvKpEGw3"
                }
            ],
            "fullUrl": "https://appmarket.epic.com/interconnect-amcurprd-oauth/api/FHIR/R4/Encounter/eUOOe6dUik2z5t6sWvKpEGw3",
            "resource": {
                "resourceType": "Encounter",
                "id": "eUOOe6dUik2z5t6sWvKpEGw3",
                "identifier": [
                    {
                        "use": "usual",
                        "system": "urn:oid:1.2.840.114350.1.13.0.1.7.3.698084.8",
                        "value": "1268"
                    }
                ],
                "status": "unknown",
                "class": {
                    "system": "urn:oid:1.2.840.114350.1.72.1.7.7.10.696784.13260",
                    "code": "13",
                    "display": "Support OP Encounter"
                },
                "subject": {
                    "reference": "Patient/edPhy6QzpBNcrE8fup25I9A3",
                    "display": "Beacon, Portia"
                },
                "participant": [
                    {
                        "individual": {
                            "reference": "Practitioner/eM5CWtq15N0WJeuCet5bJlQ3",
                            "type": "Practitioner",
                            "display": "Physician Family Medicine, MD"
                        }
                    }
                ],
                "period": {
                    "start": "2010-10-11",
                    "end": "2010-10-11"
                }
            },
            "search": {
                "mode": "match"
            }
        },
        {
            "link": [
                {
                    "relation": "self",
                    "url": "https://appmarket.epic.com/interconnect-amcurprd-oauth/api/FHIR/R4/Encounter/empCV64lCdQ-.QTN7uloaNA3"
                }
            ],
            "fullUrl": "https://appmarket.epic.com/interconnect-amcurprd-oauth/api/FHIR/R4/Encounter/empCV64lCdQ-.QTN7uloaNA3",
            "resource": {
                "resourceType": "Encounter",
                "id": "empCV64lCdQ-.QTN7uloaNA3",
                "identifier": [
                    {
                        "use": "usual",
                        "system": "urn:oid:1.2.840.114350.1.13.0.1.7.3.698084.8",
                        "value": "1269"
                    }
                ],
                "status": "unknown",
                "class": {
                    "system": "urn:oid:1.2.840.114350.1.72.1.7.7.10.696784.13260",
                    "code": "13",
                    "display": "Support OP Encounter"
                },
                "subject": {
                    "reference": "Patient/edPhy6QzpBNcrE8fup25I9A3",
                    "display": "Beacon, Portia"
                },
                "participant": [
                    {
                        "individual": {
                            "reference": "Practitioner/eM5CWtq15N0WJeuCet5bJlQ3",
                            "type": "Practitioner",
                            "display": "Physician Family Medicine, MD"
                        }
                    }
                ],
                "period": {
                    "start": "2010-06-14",
                    "end": "2010-06-14"
                }
            },
            "search": {
                "mode": "match"
            }
        },
        {
            "link": [
                {
                    "relation": "self",
                    "url": "https://appmarket.epic.com/interconnect-amcurprd-oauth/api/FHIR/R4/Encounter/eKqagP5n4zBgx3JnmQq0qPw3"
                }
            ],
            "fullUrl": "https://appmarket.epic.com/interconnect-amcurprd-oauth/api/FHIR/R4/Encounter/eKqagP5n4zBgx3JnmQq0qPw3",
            "resource": {
                "resourceType": "Encounter",
                "id": "eKqagP5n4zBgx3JnmQq0qPw3",
                "identifier": [
                    {
                        "use": "usual",
                        "system": "urn:oid:1.2.840.114350.1.13.0.1.7.3.698084.8",
                        "value": "1271"
                    }
                ],
                "status": "arrived",
                "class": {
                    "system": "urn:oid:1.2.840.114350.1.72.1.7.7.10.696784.13260",
                    "code": "5",
                    "display": "Appointment"
                },
                "type": [
                    {
                        "coding": [
                            {
                                "system": "urn:oid:1.2.840.114350.1.13.0.1.7.10.698084.30",
                                "code": "101",
                                "display": "Office Visit"
                            }
                        ],
                        "text": "Office Visit"
                    },
                    {
                        "coding": [
                            {
                                "system": "urn:oid:1.2.840.114350.1.13.0.1.7.2.808267",
                                "code": "1004",
                                "display": "Office Visit"
                            }
                        ],
                        "text": "Office Visit"
                    }
                ],
                "subject": {
                    "reference": "Patient/edPhy6QzpBNcrE8fup25I9A3",
                    "display": "Beacon, Portia"
                },
                "participant": [
                    {
                        "period": {
                            "start": "2010-03-22T16:30:00Z",
                            "end": "2010-03-22T16:45:00Z"
                        },
                        "individual": {
                            "reference": "Practitioner/eM5CWtq15N0WJeuCet5bJlQ3",
                            "display": "Physician Family Medicine, MD"
                        }
                    }
                ],
                "period": {
                    "start": "2010-03-22T16:30:00Z",
                    "end": "2010-03-22T16:45:00Z"
                },
                "reasonCode": [
                    {
                        "coding": [
                            {
                                "system": "urn:oid:1.2.840.114350.1.13.0.1.7.2.728286",
                                "code": "83",
                                "display": "Annual Exam"
                            }
                        ],
                        "text": "Annual Exam"
                    }
                ],
                "location": [
                    {
                        "location": {
                            "reference": "Location/e4W4rmGe9QzuGm2Dy4NBqVc0KDe6yGld6HW95UuN-Qd03",
                            "display": "EMC Family Medicine"
                        }
                    }
                ]
            },
            "search": {
                "mode": "match"
            }
        },
        {
            "link": [
                {
                    "relation": "self",
                    "url": "https://appmarket.epic.com/interconnect-amcurprd-oauth/api/FHIR/R4/Encounter/eIaH9qa1d1OnIK25Bt1e1GA3"
                }
            ],
            "fullUrl": "https://appmarket.epic.com/interconnect-amcurprd-oauth/api/FHIR/R4/Encounter/eIaH9qa1d1OnIK25Bt1e1GA3",
            "resource": {
                "resourceType": "Encounter",
                "id": "eIaH9qa1d1OnIK25Bt1e1GA3",
                "identifier": [
                    {
                        "use": "usual",
                        "system": "urn:oid:1.2.840.114350.1.13.0.1.7.3.698084.8",
                        "value": "1272"
                    }
                ],
                "status": "unknown",
                "class": {
                    "system": "urn:oid:1.2.840.114350.1.72.1.7.7.10.696784.13260",
                    "code": "13",
                    "display": "Support OP Encounter"
                },
                "subject": {
                    "reference": "Patient/edPhy6QzpBNcrE8fup25I9A3",
                    "display": "Beacon, Portia"
                },
                "participant": [
                    {
                        "individual": {
                            "reference": "Practitioner/eM5CWtq15N0WJeuCet5bJlQ3",
                            "type": "Practitioner",
                            "display": "Physician Family Medicine, MD"
                        }
                    }
                ],
                "period": {
                    "start": "2009-10-15",
                    "end": "2009-10-15"
                }
            },
            "search": {
                "mode": "match"
            }
        },
        {
            "link": [
                {
                    "relation": "self",
                    "url": "https://appmarket.epic.com/interconnect-amcurprd-oauth/api/FHIR/R4/Encounter/exAoLN.nVZjNE7SozMAgpVQ3"
                }
            ],
            "fullUrl": "https://appmarket.epic.com/interconnect-amcurprd-oauth/api/FHIR/R4/Encounter/exAoLN.nVZjNE7SozMAgpVQ3",
            "resource": {
                "resourceType": "Encounter",
                "id": "exAoLN.nVZjNE7SozMAgpVQ3",
                "identifier": [
                    {
                        "use": "usual",
                        "system": "urn:oid:1.2.840.114350.1.13.0.1.7.3.698084.8",
                        "value": "1273"
                    }
                ],
                "status": "unknown",
                "class": {
                    "system": "urn:oid:1.2.840.114350.1.72.1.7.7.10.696784.13260",
                    "code": "13",
                    "display": "Support OP Encounter"
                },
                "subject": {
                    "reference": "Patient/edPhy6QzpBNcrE8fup25I9A3",
                    "display": "Beacon, Portia"
                },
                "participant": [
                    {
                        "individual": {
                            "reference": "Practitioner/eM5CWtq15N0WJeuCet5bJlQ3",
                            "type": "Practitioner",
                            "display": "Physician Family Medicine, MD"
                        }
                    }
                ],
                "period": {
                    "start": "2009-06-12",
                    "end": "2009-06-12"
                }
            },
            "search": {
                "mode": "match"
            }
        },
        {
            "link": [
                {
                    "relation": "self",
                    "url": "https://appmarket.epic.com/interconnect-amcurprd-oauth/api/FHIR/R4/Encounter/eAVlyZZ.wCF1v.6BDAgjKPQ3"
                }
            ],
            "fullUrl": "https://appmarket.epic.com/interconnect-amcurprd-oauth/api/FHIR/R4/Encounter/eAVlyZZ.wCF1v.6BDAgjKPQ3",
            "resource": {
                "resourceType": "Encounter",
                "id": "eAVlyZZ.wCF1v.6BDAgjKPQ3",
                "identifier": [
                    {
                        "use": "usual",
                        "system": "urn:oid:1.2.840.114350.1.13.0.1.7.3.698084.8",
                        "value": "1274"
                    }
                ],
                "status": "unknown",
                "class": {
                    "system": "urn:oid:1.2.840.114350.1.72.1.7.7.10.696784.13260",
                    "code": "13",
                    "display": "Support OP Encounter"
                },
                "subject": {
                    "reference": "Patient/edPhy6QzpBNcrE8fup25I9A3",
                    "display": "Beacon, Portia"
                },
                "participant": [
                    {
                        "individual": {
                            "reference": "Practitioner/eM5CWtq15N0WJeuCet5bJlQ3",
                            "type": "Practitioner",
                            "display": "Physician Family Medicine, MD"
                        }
                    }
                ],
                "period": {
                    "start": "2009-05-03",
                    "end": "2009-05-03"
                }
            },
            "search": {
                "mode": "match"
            }
        },
        {
            "link": [
                {
                    "relation": "self",
                    "url": "https://appmarket.epic.com/interconnect-amcurprd-oauth/api/FHIR/R4/Encounter/eH9PcuWnmaeL.-mCaBQJoRA3"
                }
            ],
            "fullUrl": "https://appmarket.epic.com/interconnect-amcurprd-oauth/api/FHIR/R4/Encounter/eH9PcuWnmaeL.-mCaBQJoRA3",
            "resource": {
                "resourceType": "Encounter",
                "id": "eH9PcuWnmaeL.-mCaBQJoRA3",
                "identifier": [
                    {
                        "use": "usual",
                        "system": "urn:oid:1.2.840.114350.1.13.0.1.7.3.698084.8",
                        "value": "1275"
                    }
                ],
                "status": "arrived",
                "class": {
                    "system": "urn:oid:1.2.840.114350.1.72.1.7.7.10.696784.13260",
                    "code": "5",
                    "display": "Appointment"
                },
                "type": [
                    {
                        "coding": [
                            {
                                "system": "urn:oid:1.2.840.114350.1.13.0.1.7.10.698084.30",
                                "code": "101",
                                "display": "Office Visit"
                            }
                        ],
                        "text": "Office Visit"
                    },
                    {
                        "coding": [
                            {
                                "system": "urn:oid:1.2.840.114350.1.13.0.1.7.2.808267",
                                "code": "1004",
                                "display": "Office Visit"
                            }
                        ],
                        "text": "Office Visit"
                    }
                ],
                "subject": {
                    "reference": "Patient/edPhy6QzpBNcrE8fup25I9A3",
                    "display": "Beacon, Portia"
                },
                "participant": [
                    {
                        "period": {
                            "start": "2009-03-23T16:15:00Z",
                            "end": "2009-03-23T16:30:00Z"
                        },
                        "individual": {
                            "reference": "Practitioner/eM5CWtq15N0WJeuCet5bJlQ3",
                            "display": "Physician Family Medicine, MD"
                        }
                    }
                ],
                "period": {
                    "start": "2009-03-23T16:15:00Z",
                    "end": "2009-03-23T16:30:00Z"
                },
                "reasonCode": [
                    {
                        "coding": [
                            {
                                "system": "urn:oid:1.2.840.114350.1.13.0.1.7.2.728286",
                                "code": "83",
                                "display": "Annual Exam"
                            }
                        ],
                        "text": "Annual Exam"
                    }
                ],
                "location": [
                    {
                        "location": {
                            "reference": "Location/e4W4rmGe9QzuGm2Dy4NBqVc0KDe6yGld6HW95UuN-Qd03",
                            "display": "EMC Family Medicine"
                        }
                    }
                ]
            },
            "search": {
                "mode": "match"
            }
        },
        {
            "link": [
                {
                    "relation": "self",
                    "url": "https://appmarket.epic.com/interconnect-amcurprd-oauth/api/FHIR/R4/Encounter/eFbaWRol6n1n3zrHYlG9lEw3"
                }
            ],
            "fullUrl": "https://appmarket.epic.com/interconnect-amcurprd-oauth/api/FHIR/R4/Encounter/eFbaWRol6n1n3zrHYlG9lEw3",
            "resource": {
                "resourceType": "Encounter",
                "id": "eFbaWRol6n1n3zrHYlG9lEw3",
                "identifier": [
                    {
                        "use": "usual",
                        "system": "urn:oid:1.2.840.114350.1.13.0.1.7.3.698084.8",
                        "value": "1276"
                    }
                ],
                "status": "unknown",
                "class": {
                    "system": "urn:oid:1.2.840.114350.1.72.1.7.7.10.696784.13260",
                    "code": "13",
                    "display": "Support OP Encounter"
                },
                "subject": {
                    "reference": "Patient/edPhy6QzpBNcrE8fup25I9A3",
                    "display": "Beacon, Portia"
                },
                "participant": [
                    {
                        "individual": {
                            "reference": "Practitioner/eM5CWtq15N0WJeuCet5bJlQ3",
                            "type": "Practitioner",
                            "display": "Physician Family Medicine, MD"
                        }
                    }
                ],
                "period": {
                    "start": "2008-10-13",
                    "end": "2008-10-13"
                }
            },
            "search": {
                "mode": "match"
            }
        },
        {
            "link": [
                {
                    "relation": "self",
                    "url": "https://appmarket.epic.com/interconnect-amcurprd-oauth/api/FHIR/R4/Encounter/ehT.A8AyMa.-o64Oh8wiT0A3"
                }
            ],
            "fullUrl": "https://appmarket.epic.com/interconnect-amcurprd-oauth/api/FHIR/R4/Encounter/ehT.A8AyMa.-o64Oh8wiT0A3",
            "resource": {
                "resourceType": "Encounter",
                "id": "ehT.A8AyMa.-o64Oh8wiT0A3",
                "identifier": [
                    {
                        "use": "usual",
                        "system": "urn:oid:1.2.840.114350.1.13.0.1.7.3.698084.8",
                        "value": "1277"
                    }
                ],
                "status": "unknown",
                "class": {
                    "system": "urn:oid:1.2.840.114350.1.72.1.7.7.10.696784.13260",
                    "code": "13",
                    "display": "Support OP Encounter"
                },
                "subject": {
                    "reference": "Patient/edPhy6QzpBNcrE8fup25I9A3",
                    "display": "Beacon, Portia"
                },
                "participant": [
                    {
                        "individual": {
                            "reference": "Practitioner/eM5CWtq15N0WJeuCet5bJlQ3",
                            "type": "Practitioner",
                            "display": "Physician Family Medicine, MD"
                        }
                    }
                ],
                "period": {
                    "start": "2008-09-03",
                    "end": "2008-09-03"
                }
            },
            "search": {
                "mode": "match"
            }
        },
        {
            "link": [
                {
                    "relation": "self",
                    "url": "https://appmarket.epic.com/interconnect-amcurprd-oauth/api/FHIR/R4/Encounter/eNUrq-uOjnJWhbS.EGbOD.A3"
                }
            ],
            "fullUrl": "https://appmarket.epic.com/interconnect-amcurprd-oauth/api/FHIR/R4/Encounter/eNUrq-uOjnJWhbS.EGbOD.A3",
            "resource": {
                "resourceType": "Encounter",
                "id": "eNUrq-uOjnJWhbS.EGbOD.A3",
                "identifier": [
                    {
                        "use": "usual",
                        "system": "urn:oid:1.2.840.114350.1.13.0.1.7.3.698084.8",
                        "value": "1278"
                    }
                ],
                "status": "unknown",
                "class": {
                    "system": "urn:oid:1.2.840.114350.1.72.1.7.7.10.696784.13260",
                    "code": "13",
                    "display": "Support OP Encounter"
                },
                "subject": {
                    "reference": "Patient/edPhy6QzpBNcrE8fup25I9A3",
                    "display": "Beacon, Portia"
                },
                "participant": [
                    {
                        "individual": {
                            "reference": "Practitioner/eM5CWtq15N0WJeuCet5bJlQ3",
                            "type": "Practitioner",
                            "display": "Physician Family Medicine, MD"
                        }
                    }
                ],
                "period": {
                    "start": "2008-05-01",
                    "end": "2008-05-01"
                }
            },
            "search": {
                "mode": "match"
            }
        },
        {
            "link": [
                {
                    "relation": "self",
                    "url": "https://appmarket.epic.com/interconnect-amcurprd-oauth/api/FHIR/R4/Encounter/eSe.CQdTZRjIffeJhdH5AWg3"
                }
            ],
            "fullUrl": "https://appmarket.epic.com/interconnect-amcurprd-oauth/api/FHIR/R4/Encounter/eSe.CQdTZRjIffeJhdH5AWg3",
            "resource": {
                "resourceType": "Encounter",
                "id": "eSe.CQdTZRjIffeJhdH5AWg3",
                "identifier": [
                    {
                        "use": "usual",
                        "system": "urn:oid:1.2.840.114350.1.13.0.1.7.3.698084.8",
                        "value": "1279"
                    }
                ],
                "status": "unknown",
                "class": {
                    "system": "urn:oid:1.2.840.114350.1.72.1.7.7.10.696784.13260",
                    "code": "13",
                    "display": "Support OP Encounter"
                },
                "subject": {
                    "reference": "Patient/edPhy6QzpBNcrE8fup25I9A3",
                    "display": "Beacon, Portia"
                },
                "participant": [
                    {
                        "individual": {
                            "reference": "Practitioner/eM5CWtq15N0WJeuCet5bJlQ3",
                            "type": "Practitioner",
                            "display": "Physician Family Medicine, MD"
                        }
                    }
                ],
                "period": {
                    "start": "2008-05-01",
                    "end": "2008-05-01"
                }
            },
            "search": {
                "mode": "match"
            }
        },
        {
            "link": [
                {
                    "relation": "self",
                    "url": "https://appmarket.epic.com/interconnect-amcurprd-oauth/api/FHIR/R4/Encounter/eeEv.tnRiMMPPTewY0G3BXg3"
                }
            ],
            "fullUrl": "https://appmarket.epic.com/interconnect-amcurprd-oauth/api/FHIR/R4/Encounter/eeEv.tnRiMMPPTewY0G3BXg3",
            "resource": {
                "resourceType": "Encounter",
                "id": "eeEv.tnRiMMPPTewY0G3BXg3",
                "identifier": [
                    {
                        "use": "usual",
                        "system": "urn:oid:1.2.840.114350.1.13.0.1.7.3.698084.8",
                        "value": "1280"
                    }
                ],
                "status": "arrived",
                "class": {
                    "system": "urn:oid:1.2.840.114350.1.72.1.7.7.10.696784.13260",
                    "code": "5",
                    "display": "Appointment"
                },
                "type": [
                    {
                        "coding": [
                            {
                                "system": "urn:oid:1.2.840.114350.1.13.0.1.7.10.698084.30",
                                "code": "101",
                                "display": "Office Visit"
                            }
                        ],
                        "text": "Office Visit"
                    },
                    {
                        "coding": [
                            {
                                "system": "urn:oid:1.2.840.114350.1.13.0.1.7.2.808267",
                                "code": "1004",
                                "display": "Office Visit"
                            }
                        ],
                        "text": "Office Visit"
                    }
                ],
                "subject": {
                    "reference": "Patient/edPhy6QzpBNcrE8fup25I9A3",
                    "display": "Beacon, Portia"
                },
                "participant": [
                    {
                        "period": {
                            "start": "2008-04-26T20:45:00Z",
                            "end": "2008-04-26T21:00:00Z"
                        },
                        "individual": {
                            "reference": "Practitioner/eM5CWtq15N0WJeuCet5bJlQ3",
                            "display": "Physician Family Medicine, MD"
                        }
                    }
                ],
                "period": {
                    "start": "2008-04-26T20:45:00Z",
                    "end": "2008-04-26T21:00:00Z"
                },
                "reasonCode": [
                    {
                        "coding": [
                            {
                                "system": "urn:oid:1.2.840.114350.1.13.0.1.7.2.728286",
                                "code": "83",
                                "display": "Annual Exam"
                            }
                        ],
                        "text": "Annual Exam"
                    }
                ],
                "location": [
                    {
                        "location": {
                            "reference": "Location/e4W4rmGe9QzuGm2Dy4NBqVc0KDe6yGld6HW95UuN-Qd03",
                            "display": "EMC Family Medicine"
                        }
                    }
                ]
            },
            "search": {
                "mode": "match"
            }
        },
        {
            "link": [
                {
                    "relation": "self",
                    "url": "https://appmarket.epic.com/interconnect-amcurprd-oauth/api/FHIR/R4/Encounter/euES0Gj2CCMoHkEan-spCCQ3"
                }
            ],
            "fullUrl": "https://appmarket.epic.com/interconnect-amcurprd-oauth/api/FHIR/R4/Encounter/euES0Gj2CCMoHkEan-spCCQ3",
            "resource": {
                "resourceType": "Encounter",
                "id": "euES0Gj2CCMoHkEan-spCCQ3",
                "identifier": [
                    {
                        "use": "usual",
                        "system": "urn:oid:1.2.840.114350.1.13.0.1.7.3.698084.8",
                        "value": "1281"
                    }
                ],
                "status": "unknown",
                "class": {
                    "system": "urn:oid:1.2.840.114350.1.72.1.7.7.10.696784.13260",
                    "code": "13",
                    "display": "Support OP Encounter"
                },
                "subject": {
                    "reference": "Patient/edPhy6QzpBNcrE8fup25I9A3",
                    "display": "Beacon, Portia"
                },
                "participant": [
                    {
                        "individual": {
                            "reference": "Practitioner/eM5CWtq15N0WJeuCet5bJlQ3",
                            "type": "Practitioner",
                            "display": "Physician Family Medicine, MD"
                        }
                    }
                ],
                "period": {
                    "start": "2007-09-02",
                    "end": "2007-09-02"
                }
            },
            "search": {
                "mode": "match"
            }
        },
        {
            "link": [
                {
                    "relation": "self",
                    "url": "https://appmarket.epic.com/interconnect-amcurprd-oauth/api/FHIR/R4/Encounter/efBrZcsgsc90xDLhBSIIluw3"
                }
            ],
            "fullUrl": "https://appmarket.epic.com/interconnect-amcurprd-oauth/api/FHIR/R4/Encounter/efBrZcsgsc90xDLhBSIIluw3",
            "resource": {
                "resourceType": "Encounter",
                "id": "efBrZcsgsc90xDLhBSIIluw3",
                "identifier": [
                    {
                        "use": "usual",
                        "system": "urn:oid:1.2.840.114350.1.13.0.1.7.3.698084.8",
                        "value": "1282"
                    }
                ],
                "status": "unknown",
                "class": {
                    "system": "urn:oid:1.2.840.114350.1.72.1.7.7.10.696784.13260",
                    "code": "13",
                    "display": "Support OP Encounter"
                },
                "subject": {
                    "reference": "Patient/edPhy6QzpBNcrE8fup25I9A3",
                    "display": "Beacon, Portia"
                },
                "participant": [
                    {
                        "individual": {
                            "reference": "Practitioner/eM5CWtq15N0WJeuCet5bJlQ3",
                            "type": "Practitioner",
                            "display": "Physician Family Medicine, MD"
                        }
                    }
                ],
                "period": {
                    "start": "2007-09-02",
                    "end": "2007-09-02"
                }
            },
            "search": {
                "mode": "match"
            }
        },
        {
            "link": [
                {
                    "relation": "self",
                    "url": "https://appmarket.epic.com/interconnect-amcurprd-oauth/api/FHIR/R4/Encounter/eD5VA1VxucVF7zClJw-zjQw3"
                }
            ],
            "fullUrl": "https://appmarket.epic.com/interconnect-amcurprd-oauth/api/FHIR/R4/Encounter/eD5VA1VxucVF7zClJw-zjQw3",
            "resource": {
                "resourceType": "Encounter",
                "id": "eD5VA1VxucVF7zClJw-zjQw3",
                "identifier": [
                    {
                        "use": "usual",
                        "system": "urn:oid:1.2.840.114350.1.13.0.1.7.3.698084.8",
                        "value": "1284"
                    }
                ],
                "status": "arrived",
                "class": {
                    "system": "urn:oid:1.2.840.114350.1.72.1.7.7.10.696784.13260",
                    "code": "5",
                    "display": "Appointment"
                },
                "type": [
                    {
                        "coding": [
                            {
                                "system": "urn:oid:1.2.840.114350.1.13.0.1.7.10.698084.30",
                                "code": "101",
                                "display": "Office Visit"
                            }
                        ],
                        "text": "Office Visit"
                    },
                    {
                        "coding": [
                            {
                                "system": "urn:oid:1.2.840.114350.1.13.0.1.7.2.808267",
                                "code": "1004",
                                "display": "Office Visit"
                            }
                        ],
                        "text": "Office Visit"
                    }
                ],
                "subject": {
                    "reference": "Patient/edPhy6QzpBNcrE8fup25I9A3",
                    "display": "Beacon, Portia"
                },
                "participant": [
                    {
                        "period": {
                            "start": "2007-06-01T20:15:00Z",
                            "end": "2007-06-01T20:30:00Z"
                        },
                        "individual": {
                            "reference": "Practitioner/eM5CWtq15N0WJeuCet5bJlQ3",
                            "display": "Physician Family Medicine, MD"
                        }
                    }
                ],
                "period": {
                    "start": "2007-06-01T20:15:00Z",
                    "end": "2007-06-01T20:30:00Z"
                },
                "reasonCode": [
                    {
                        "coding": [
                            {
                                "system": "urn:oid:1.2.840.114350.1.13.0.1.7.2.728286",
                                "code": "1410000014",
                                "display": "UTI"
                            }
                        ],
                        "text": "UTI"
                    }
                ],
                "location": [
                    {
                        "location": {
                            "reference": "Location/e4W4rmGe9QzuGm2Dy4NBqVc0KDe6yGld6HW95UuN-Qd03",
                            "display": "EMC Family Medicine"
                        }
                    }
                ]
            },
            "search": {
                "mode": "match"
            }
        },
        {
            "link": [
                {
                    "relation": "self",
                    "url": "https://appmarket.epic.com/interconnect-amcurprd-oauth/api/FHIR/R4/Encounter/ePWfE8QBA05-aDilRD0f6qg3"
                }
            ],
            "fullUrl": "https://appmarket.epic.com/interconnect-amcurprd-oauth/api/FHIR/R4/Encounter/ePWfE8QBA05-aDilRD0f6qg3",
            "resource": {
                "resourceType": "Encounter",
                "id": "ePWfE8QBA05-aDilRD0f6qg3",
                "identifier": [
                    {
                        "use": "usual",
                        "system": "urn:oid:1.2.840.114350.1.13.0.1.7.3.698084.8",
                        "value": "1285"
                    }
                ],
                "status": "finished",
                "class": {
                    "system": "urn:oid:1.2.840.114350.1.72.1.7.7.10.696784.13260",
                    "code": "13",
                    "display": "Support OP Encounter"
                },
                "type": [
                    {
                        "coding": [
                            {
                                "system": "urn:oid:1.2.840.114350.1.13.0.1.7.10.698084.30",
                                "code": "70",
                                "display": "Telephone"
                            }
                        ],
                        "text": "Telephone"
                    }
                ],
                "subject": {
                    "reference": "Patient/edPhy6QzpBNcrE8fup25I9A3",
                    "display": "Beacon, Portia"
                },
                "period": {
                    "start": "2007-05-31",
                    "end": "2007-05-31"
                },
                "reasonCode": [
                    {
                        "coding": [
                            {
                                "system": "urn:oid:1.2.840.114350.1.13.0.1.7.2.728286",
                                "code": "1410000014",
                                "display": "UTI"
                            }
                        ],
                        "text": "UTI"
                    }
                ],
                "location": [
                    {
                        "location": {
                            "reference": "Location/e4W4rmGe9QzuGm2Dy4NBqVc0KDe6yGld6HW95UuN-Qd03",
                            "display": "EMC Family Medicine"
                        }
                    }
                ]
            },
            "search": {
                "mode": "match"
            }
        },
        {
            "link": [
                {
                    "relation": "self",
                    "url": "https://appmarket.epic.com/interconnect-amcurprd-oauth/api/FHIR/R4/Encounter/eQX7pW9ZxkhNdAQr.oK2MbQ3"
                }
            ],
            "fullUrl": "https://appmarket.epic.com/interconnect-amcurprd-oauth/api/FHIR/R4/Encounter/eQX7pW9ZxkhNdAQr.oK2MbQ3",
            "resource": {
                "resourceType": "Encounter",
                "id": "eQX7pW9ZxkhNdAQr.oK2MbQ3",
                "identifier": [
                    {
                        "use": "usual",
                        "system": "urn:oid:1.2.840.114350.1.13.0.1.7.3.698084.8",
                        "value": "1286"
                    }
                ],
                "status": "arrived",
                "class": {
                    "system": "urn:oid:1.2.840.114350.1.72.1.7.7.10.696784.13260",
                    "code": "5",
                    "display": "Appointment"
                },
                "type": [
                    {
                        "coding": [
                            {
                                "system": "urn:oid:1.2.840.114350.1.13.0.1.7.10.698084.30",
                                "code": "101",
                                "display": "Office Visit"
                            }
                        ],
                        "text": "Office Visit"
                    },
                    {
                        "coding": [
                            {
                                "system": "urn:oid:1.2.840.114350.1.13.0.1.7.2.808267",
                                "code": "1004",
                                "display": "Office Visit"
                            }
                        ],
                        "text": "Office Visit"
                    }
                ],
                "subject": {
                    "reference": "Patient/edPhy6QzpBNcrE8fup25I9A3",
                    "display": "Beacon, Portia"
                },
                "participant": [
                    {
                        "period": {
                            "start": "2007-05-11T20:00:00Z",
                            "end": "2007-05-11T20:15:00Z"
                        },
                        "individual": {
                            "reference": "Practitioner/eM5CWtq15N0WJeuCet5bJlQ3",
                            "display": "Physician Family Medicine, MD"
                        }
                    }
                ],
                "period": {
                    "start": "2007-05-11T20:00:00Z",
                    "end": "2007-05-11T20:15:00Z"
                },
                "reasonCode": [
                    {
                        "coding": [
                            {
                                "system": "urn:oid:1.2.840.114350.1.13.0.1.7.2.728286",
                                "code": "83",
                                "display": "Annual Exam"
                            }
                        ],
                        "text": "Annual Exam"
                    }
                ],
                "location": [
                    {
                        "location": {
                            "reference": "Location/e4W4rmGe9QzuGm2Dy4NBqVc0KDe6yGld6HW95UuN-Qd03",
                            "display": "EMC Family Medicine"
                        }
                    }
                ]
            },
            "search": {
                "mode": "match"
            }
        },
        {
            "link": [
                {
                    "relation": "self",
                    "url": "https://appmarket.epic.com/interconnect-amcurprd-oauth/api/FHIR/R4/Encounter/eh9Ry28tqC4SvSZuzl-vGFA3"
                }
            ],
            "fullUrl": "https://appmarket.epic.com/interconnect-amcurprd-oauth/api/FHIR/R4/Encounter/eh9Ry28tqC4SvSZuzl-vGFA3",
            "resource": {
                "resourceType": "Encounter",
                "id": "eh9Ry28tqC4SvSZuzl-vGFA3",
                "identifier": [
                    {
                        "use": "usual",
                        "system": "urn:oid:1.2.840.114350.1.13.0.1.7.3.698084.8",
                        "value": "1287"
                    }
                ],
                "status": "unknown",
                "class": {
                    "system": "urn:oid:1.2.840.114350.1.72.1.7.7.10.696784.13260",
                    "code": "13",
                    "display": "Support OP Encounter"
                },
                "subject": {
                    "reference": "Patient/edPhy6QzpBNcrE8fup25I9A3",
                    "display": "Beacon, Portia"
                },
                "period": {
                    "start": "2007-05-03",
                    "end": "2007-05-03"
                }
            },
            "search": {
                "mode": "match"
            }
        },
        {
            "link": [
                {
                    "relation": "self",
                    "url": "https://appmarket.epic.com/interconnect-amcurprd-oauth/api/FHIR/R4/Encounter/eNuq1q4vpYOdI4LGVsN3zmg3"
                }
            ],
            "fullUrl": "https://appmarket.epic.com/interconnect-amcurprd-oauth/api/FHIR/R4/Encounter/eNuq1q4vpYOdI4LGVsN3zmg3",
            "resource": {
                "resourceType": "Encounter",
                "id": "eNuq1q4vpYOdI4LGVsN3zmg3",
                "identifier": [
                    {
                        "use": "usual",
                        "system": "urn:oid:1.2.840.114350.1.13.0.1.7.3.698084.8",
                        "value": "1288"
                    }
                ],
                "status": "unknown",
                "class": {
                    "system": "urn:oid:1.2.840.114350.1.72.1.7.7.10.696784.13260",
                    "code": "13",
                    "display": "Support OP Encounter"
                },
                "subject": {
                    "reference": "Patient/edPhy6QzpBNcrE8fup25I9A3",
                    "display": "Beacon, Portia"
                },
                "period": {
                    "start": "2006-09-03",
                    "end": "2006-09-03"
                }
            },
            "search": {
                "mode": "match"
            }
        },
        {
            "link": [
                {
                    "relation": "self",
                    "url": "https://appmarket.epic.com/interconnect-amcurprd-oauth/api/FHIR/R4/Encounter/efO29SnuagtZgp6KOhM5n.w3"
                }
            ],
            "fullUrl": "https://appmarket.epic.com/interconnect-amcurprd-oauth/api/FHIR/R4/Encounter/efO29SnuagtZgp6KOhM5n.w3",
            "resource": {
                "resourceType": "Encounter",
                "id": "efO29SnuagtZgp6KOhM5n.w3",
                "identifier": [
                    {
                        "use": "usual",
                        "system": "urn:oid:1.2.840.114350.1.13.0.1.7.3.698084.8",
                        "value": "1289"
                    }
                ],
                "status": "arrived",
                "class": {
                    "system": "urn:oid:1.2.840.114350.1.72.1.7.7.10.696784.13260",
                    "code": "5",
                    "display": "Appointment"
                },
                "type": [
                    {
                        "coding": [
                            {
                                "system": "urn:oid:1.2.840.114350.1.13.0.1.7.10.698084.30",
                                "code": "101",
                                "display": "Office Visit"
                            }
                        ],
                        "text": "Office Visit"
                    },
                    {
                        "coding": [
                            {
                                "system": "urn:oid:1.2.840.114350.1.13.0.1.7.2.808267",
                                "code": "1004",
                                "display": "Office Visit"
                            }
                        ],
                        "text": "Office Visit"
                    }
                ],
                "subject": {
                    "reference": "Patient/edPhy6QzpBNcrE8fup25I9A3",
                    "display": "Beacon, Portia"
                },
                "participant": [
                    {
                        "period": {
                            "start": "2006-07-31T19:45:00Z",
                            "end": "2006-07-31T20:00:00Z"
                        },
                        "individual": {
                            "reference": "Practitioner/eM5CWtq15N0WJeuCet5bJlQ3",
                            "display": "Physician Family Medicine, MD"
                        }
                    }
                ],
                "period": {
                    "start": "2006-07-31T19:45:00Z",
                    "end": "2006-07-31T20:00:00Z"
                },
                "reasonCode": [
                    {
                        "coding": [
                            {
                                "system": "urn:oid:1.2.840.114350.1.13.0.1.7.2.728286",
                                "code": "115",
                                "display": "URI"
                            }
                        ],
                        "text": "URI"
                    }
                ],
                "location": [
                    {
                        "location": {
                            "reference": "Location/e4W4rmGe9QzuGm2Dy4NBqVc0KDe6yGld6HW95UuN-Qd03",
                            "display": "EMC Family Medicine"
                        }
                    }
                ]
            },
            "search": {
                "mode": "match"
            }
        },
        {
            "link": [
                {
                    "relation": "self",
                    "url": "https://appmarket.epic.com/interconnect-amcurprd-oauth/api/FHIR/R4/Encounter/et72b4r9FqF5hN6tmeBmVqQ3"
                }
            ],
            "fullUrl": "https://appmarket.epic.com/interconnect-amcurprd-oauth/api/FHIR/R4/Encounter/et72b4r9FqF5hN6tmeBmVqQ3",
            "resource": {
                "resourceType": "Encounter",
                "id": "et72b4r9FqF5hN6tmeBmVqQ3",
                "identifier": [
                    {
                        "use": "usual",
                        "system": "urn:oid:1.2.840.114350.1.13.0.1.7.3.698084.8",
                        "value": "1290"
                    }
                ],
                "status": "unknown",
                "class": {
                    "system": "urn:oid:1.2.840.114350.1.72.1.7.7.10.696784.13260",
                    "code": "13",
                    "display": "Support OP Encounter"
                },
                "subject": {
                    "reference": "Patient/edPhy6QzpBNcrE8fup25I9A3",
                    "display": "Beacon, Portia"
                },
                "period": {
                    "start": "2006-06-06",
                    "end": "2006-06-06"
                }
            },
            "search": {
                "mode": "match"
            }
        },
        {
            "link": [
                {
                    "relation": "self",
                    "url": "https://appmarket.epic.com/interconnect-amcurprd-oauth/api/FHIR/R4/Encounter/epMPp1e2mF61VYl6RF77nFQ3"
                }
            ],
            "fullUrl": "https://appmarket.epic.com/interconnect-amcurprd-oauth/api/FHIR/R4/Encounter/epMPp1e2mF61VYl6RF77nFQ3",
            "resource": {
                "resourceType": "Encounter",
                "id": "epMPp1e2mF61VYl6RF77nFQ3",
                "identifier": [
                    {
                        "use": "usual",
                        "system": "urn:oid:1.2.840.114350.1.13.0.1.7.3.698084.8",
                        "value": "1291"
                    }
                ],
                "status": "arrived",
                "class": {
                    "system": "urn:oid:1.2.840.114350.1.72.1.7.7.10.696784.13260",
                    "code": "5",
                    "display": "Appointment"
                },
                "type": [
                    {
                        "coding": [
                            {
                                "system": "urn:oid:1.2.840.114350.1.13.0.1.7.10.698084.30",
                                "code": "101",
                                "display": "Office Visit"
                            }
                        ],
                        "text": "Office Visit"
                    },
                    {
                        "coding": [
                            {
                                "system": "urn:oid:1.2.840.114350.1.13.0.1.7.2.808267",
                                "code": "1004",
                                "display": "Office Visit"
                            }
                        ],
                        "text": "Office Visit"
                    }
                ],
                "subject": {
                    "reference": "Patient/edPhy6QzpBNcrE8fup25I9A3",
                    "display": "Beacon, Portia"
                },
                "participant": [
                    {
                        "period": {
                            "start": "2006-05-18T19:30:00Z",
                            "end": "2006-05-18T19:45:00Z"
                        },
                        "individual": {
                            "reference": "Practitioner/eM5CWtq15N0WJeuCet5bJlQ3",
                            "display": "Physician Family Medicine, MD"
                        }
                    }
                ],
                "period": {
                    "start": "2006-05-18T19:30:00Z",
                    "end": "2006-05-18T19:45:00Z"
                },
                "reasonCode": [
                    {
                        "coding": [
                            {
                                "system": "urn:oid:1.2.840.114350.1.13.0.1.7.2.728286",
                                "code": "83",
                                "display": "Annual Exam"
                            }
                        ],
                        "text": "Annual Exam"
                    }
                ],
                "location": [
                    {
                        "location": {
                            "reference": "Location/e4W4rmGe9QzuGm2Dy4NBqVc0KDe6yGld6HW95UuN-Qd03",
                            "display": "EMC Family Medicine"
                        }
                    }
                ]
            },
            "search": {
                "mode": "match"
            }
        },
        {
            "link": [
                {
                    "relation": "self",
                    "url": "https://appmarket.epic.com/interconnect-amcurprd-oauth/api/FHIR/R4/Encounter/e76JkgUQq9.ZYCgSX0lYe6w3"
                }
            ],
            "fullUrl": "https://appmarket.epic.com/interconnect-amcurprd-oauth/api/FHIR/R4/Encounter/e76JkgUQq9.ZYCgSX0lYe6w3",
            "resource": {
                "resourceType": "Encounter",
                "id": "e76JkgUQq9.ZYCgSX0lYe6w3",
                "identifier": [
                    {
                        "use": "usual",
                        "system": "urn:oid:1.2.840.114350.1.13.0.1.7.3.698084.8",
                        "value": "1292"
                    }
                ],
                "status": "finished",
                "class": {
                    "system": "urn:oid:1.2.840.114350.1.72.1.7.7.10.696784.13260",
                    "code": "13",
                    "display": "Support OP Encounter"
                },
                "type": [
                    {
                        "coding": [
                            {
                                "system": "urn:oid:1.2.840.114350.1.13.0.1.7.10.698084.30",
                                "code": "107",
                                "display": "Refill"
                            }
                        ],
                        "text": "Refill"
                    }
                ],
                "subject": {
                    "reference": "Patient/edPhy6QzpBNcrE8fup25I9A3",
                    "display": "Beacon, Portia"
                },
                "period": {
                    "start": "2006-04-08",
                    "end": "2006-04-08"
                },
                "reasonCode": [
                    {
                        "coding": [
                            {
                                "system": "urn:oid:1.2.840.114350.1.13.0.1.7.2.728286",
                                "code": "160383",
                                "display": "Med Refill"
                            }
                        ],
                        "text": "Med Refill"
                    }
                ],
                "location": [
                    {
                        "location": {
                            "reference": "Location/e4W4rmGe9QzuGm2Dy4NBqVc0KDe6yGld6HW95UuN-Qd03",
                            "display": "EMC Family Medicine"
                        }
                    }
                ]
            },
            "search": {
                "mode": "match"
            }
        },
        {
            "link": [
                {
                    "relation": "self",
                    "url": "https://appmarket.epic.com/interconnect-amcurprd-oauth/api/FHIR/R4/Encounter/eRMY1Po55Lbvs3ArPRXKqMw3"
                }
            ],
            "fullUrl": "https://appmarket.epic.com/interconnect-amcurprd-oauth/api/FHIR/R4/Encounter/eRMY1Po55Lbvs3ArPRXKqMw3",
            "resource": {
                "resourceType": "Encounter",
                "id": "eRMY1Po55Lbvs3ArPRXKqMw3",
                "identifier": [
                    {
                        "use": "usual",
                        "system": "urn:oid:1.2.840.114350.1.13.0.1.7.3.698084.8",
                        "value": "1293"
                    }
                ],
                "status": "unknown",
                "class": {
                    "system": "urn:oid:1.2.840.114350.1.72.1.7.7.10.696784.13260",
                    "code": "13",
                    "display": "Support OP Encounter"
                },
                "subject": {
                    "reference": "Patient/edPhy6QzpBNcrE8fup25I9A3",
                    "display": "Beacon, Portia"
                },
                "period": {
                    "start": "2005-10-07",
                    "end": "2005-10-07"
                }
            },
            "search": {
                "mode": "match"
            }
        },
        {
            "link": [
                {
                    "relation": "self",
                    "url": "https://appmarket.epic.com/interconnect-amcurprd-oauth/api/FHIR/R4/Encounter/e5nGyuHqa-KXny4AW0t2lyw3"
                }
            ],
            "fullUrl": "https://appmarket.epic.com/interconnect-amcurprd-oauth/api/FHIR/R4/Encounter/e5nGyuHqa-KXny4AW0t2lyw3",
            "resource": {
                "resourceType": "Encounter",
                "id": "e5nGyuHqa-KXny4AW0t2lyw3",
                "identifier": [
                    {
                        "use": "usual",
                        "system": "urn:oid:1.2.840.114350.1.13.0.1.7.3.698084.8",
                        "value": "1294"
                    }
                ],
                "status": "unknown",
                "class": {
                    "system": "urn:oid:1.2.840.114350.1.72.1.7.7.10.696784.13260",
                    "code": "13",
                    "display": "Support OP Encounter"
                },
                "subject": {
                    "reference": "Patient/edPhy6QzpBNcrE8fup25I9A3",
                    "display": "Beacon, Portia"
                },
                "period": {
                    "start": "2005-07-11",
                    "end": "2005-07-11"
                }
            },
            "search": {
                "mode": "match"
            }
        },
        {
            "link": [
                {
                    "relation": "self",
                    "url": "https://appmarket.epic.com/interconnect-amcurprd-oauth/api/FHIR/R4/Encounter/eyEPglWws.Wbb1bZ1uaZ7Cw3"
                }
            ],
            "fullUrl": "https://appmarket.epic.com/interconnect-amcurprd-oauth/api/FHIR/R4/Encounter/eyEPglWws.Wbb1bZ1uaZ7Cw3",
            "resource": {
                "resourceType": "Encounter",
                "id": "eyEPglWws.Wbb1bZ1uaZ7Cw3",
                "identifier": [
                    {
                        "use": "usual",
                        "system": "urn:oid:1.2.840.114350.1.13.0.1.7.3.698084.8",
                        "value": "1295"
                    }
                ],
                "status": "unknown",
                "class": {
                    "system": "urn:oid:1.2.840.114350.1.72.1.7.7.10.696784.13260",
                    "code": "13",
                    "display": "Support OP Encounter"
                },
                "subject": {
                    "reference": "Patient/edPhy6QzpBNcrE8fup25I9A3",
                    "display": "Beacon, Portia"
                },
                "period": {
                    "start": "2005-07-11",
                    "end": "2005-07-11"
                }
            },
            "search": {
                "mode": "match"
            }
        },
        {
            "link": [
                {
                    "relation": "self",
                    "url": "https://appmarket.epic.com/interconnect-amcurprd-oauth/api/FHIR/R4/Encounter/eqZ6ddzSJR2SP3QxFE6XlHA3"
                }
            ],
            "fullUrl": "https://appmarket.epic.com/interconnect-amcurprd-oauth/api/FHIR/R4/Encounter/eqZ6ddzSJR2SP3QxFE6XlHA3",
            "resource": {
                "resourceType": "Encounter",
                "id": "eqZ6ddzSJR2SP3QxFE6XlHA3",
                "identifier": [
                    {
                        "use": "usual",
                        "system": "urn:oid:1.2.840.114350.1.13.0.1.7.3.698084.8",
                        "value": "1296"
                    }
                ],
                "status": "unknown",
                "class": {
                    "system": "urn:oid:1.2.840.114350.1.72.1.7.7.10.696784.13260",
                    "code": "13",
                    "display": "Support OP Encounter"
                },
                "subject": {
                    "reference": "Patient/edPhy6QzpBNcrE8fup25I9A3",
                    "display": "Beacon, Portia"
                },
                "period": {
                    "start": "2005-07-10",
                    "end": "2005-07-10"
                }
            },
            "search": {
                "mode": "match"
            }
        },
        {
            "link": [
                {
                    "relation": "self",
                    "url": "https://appmarket.epic.com/interconnect-amcurprd-oauth/api/FHIR/R4/Encounter/ee2Oc-bgHWUWj0wT6LcnRwA3"
                }
            ],
            "fullUrl": "https://appmarket.epic.com/interconnect-amcurprd-oauth/api/FHIR/R4/Encounter/ee2Oc-bgHWUWj0wT6LcnRwA3",
            "resource": {
                "resourceType": "Encounter",
                "id": "ee2Oc-bgHWUWj0wT6LcnRwA3",
                "identifier": [
                    {
                        "use": "usual",
                        "system": "urn:oid:1.2.840.114350.1.13.0.1.7.3.698084.8",
                        "value": "1297"
                    }
                ],
                "status": "unknown",
                "class": {
                    "system": "urn:oid:1.2.840.114350.1.72.1.7.7.10.696784.13260",
                    "code": "13",
                    "display": "Support OP Encounter"
                },
                "subject": {
                    "reference": "Patient/edPhy6QzpBNcrE8fup25I9A3",
                    "display": "Beacon, Portia"
                },
                "period": {
                    "start": "2005-06-20",
                    "end": "2005-06-20"
                }
            },
            "search": {
                "mode": "match"
            }
        },
        {
            "link": [
                {
                    "relation": "self",
                    "url": "https://appmarket.epic.com/interconnect-amcurprd-oauth/api/FHIR/R4/Encounter/eU7aQR-7x4sbrWX6kJcL5hg3"
                }
            ],
            "fullUrl": "https://appmarket.epic.com/interconnect-amcurprd-oauth/api/FHIR/R4/Encounter/eU7aQR-7x4sbrWX6kJcL5hg3",
            "resource": {
                "resourceType": "Encounter",
                "id": "eU7aQR-7x4sbrWX6kJcL5hg3",
                "identifier": [
                    {
                        "use": "usual",
                        "system": "urn:oid:1.2.840.114350.1.13.0.1.7.3.698084.8",
                        "value": "1298"
                    }
                ],
                "status": "arrived",
                "class": {
                    "system": "urn:oid:1.2.840.114350.1.72.1.7.7.10.696784.13260",
                    "code": "5",
                    "display": "Appointment"
                },
                "type": [
                    {
                        "coding": [
                            {
                                "system": "urn:oid:1.2.840.114350.1.13.0.1.7.10.698084.30",
                                "code": "101",
                                "display": "Office Visit"
                            }
                        ],
                        "text": "Office Visit"
                    },
                    {
                        "coding": [
                            {
                                "system": "urn:oid:1.2.840.114350.1.13.0.1.7.2.808267",
                                "code": "1004",
                                "display": "Office Visit"
                            }
                        ],
                        "text": "Office Visit"
                    }
                ],
                "subject": {
                    "reference": "Patient/edPhy6QzpBNcrE8fup25I9A3",
                    "display": "Beacon, Portia"
                },
                "participant": [
                    {
                        "period": {
                            "start": "2005-04-23T21:30:00Z",
                            "end": "2005-04-23T21:45:00Z"
                        },
                        "individual": {
                            "reference": "Practitioner/eM5CWtq15N0WJeuCet5bJlQ3",
                            "display": "Physician Family Medicine, MD"
                        }
                    }
                ],
                "period": {
                    "start": "2005-04-23T21:30:00Z",
                    "end": "2005-04-23T21:45:00Z"
                },
                "reasonCode": [
                    {
                        "coding": [
                            {
                                "system": "urn:oid:1.2.840.114350.1.13.0.1.7.2.728286",
                                "code": "83",
                                "display": "Annual Exam"
                            }
                        ],
                        "text": "Annual Exam"
                    }
                ],
                "location": [
                    {
                        "location": {
                            "reference": "Location/e4W4rmGe9QzuGm2Dy4NBqVc0KDe6yGld6HW95UuN-Qd03",
                            "display": "EMC Family Medicine"
                        }
                    }
                ]
            },
            "search": {
                "mode": "match"
            }
        },
        {
            "link": [
                {
                    "relation": "self",
                    "url": "https://appmarket.epic.com/interconnect-amcurprd-oauth/api/FHIR/R4/Encounter/emUxZMQNuDmQm2gMXH9cgsw3"
                }
            ],
            "fullUrl": "https://appmarket.epic.com/interconnect-amcurprd-oauth/api/FHIR/R4/Encounter/emUxZMQNuDmQm2gMXH9cgsw3",
            "resource": {
                "resourceType": "Encounter",
                "id": "emUxZMQNuDmQm2gMXH9cgsw3",
                "identifier": [
                    {
                        "use": "usual",
                        "system": "urn:oid:1.2.840.114350.1.13.0.1.7.3.698084.8",
                        "value": "1299"
                    }
                ],
                "status": "unknown",
                "class": {
                    "system": "urn:oid:1.2.840.114350.1.72.1.7.7.10.696784.13260",
                    "code": "13",
                    "display": "Support OP Encounter"
                },
                "subject": {
                    "reference": "Patient/edPhy6QzpBNcrE8fup25I9A3",
                    "display": "Beacon, Portia"
                },
                "period": {
                    "start": "2004-11-11",
                    "end": "2004-11-11"
                }
            },
            "search": {
                "mode": "match"
            }
        },
        {
            "link": [
                {
                    "relation": "self",
                    "url": "https://appmarket.epic.com/interconnect-amcurprd-oauth/api/FHIR/R4/Encounter/elMKDuQhu1HP4C-QrzTibDg3"
                }
            ],
            "fullUrl": "https://appmarket.epic.com/interconnect-amcurprd-oauth/api/FHIR/R4/Encounter/elMKDuQhu1HP4C-QrzTibDg3",
            "resource": {
                "resourceType": "Encounter",
                "id": "elMKDuQhu1HP4C-QrzTibDg3",
                "identifier": [
                    {
                        "use": "usual",
                        "system": "urn:oid:1.2.840.114350.1.13.0.1.7.3.698084.8",
                        "value": "1300"
                    }
                ],
                "status": "unknown",
                "class": {
                    "system": "urn:oid:1.2.840.114350.1.72.1.7.7.10.696784.13260",
                    "code": "13",
                    "display": "Support OP Encounter"
                },
                "subject": {
                    "reference": "Patient/edPhy6QzpBNcrE8fup25I9A3",
                    "display": "Beacon, Portia"
                },
                "period": {
                    "start": "2004-11-11",
                    "end": "2004-11-11"
                }
            },
            "search": {
                "mode": "match"
            }
        },
        {
            "link": [
                {
                    "relation": "self",
                    "url": "https://appmarket.epic.com/interconnect-amcurprd-oauth/api/FHIR/R4/Encounter/eVeNKOzclMeegIlOyyfgcMg3"
                }
            ],
            "fullUrl": "https://appmarket.epic.com/interconnect-amcurprd-oauth/api/FHIR/R4/Encounter/eVeNKOzclMeegIlOyyfgcMg3",
            "resource": {
                "resourceType": "Encounter",
                "id": "eVeNKOzclMeegIlOyyfgcMg3",
                "identifier": [
                    {
                        "use": "usual",
                        "system": "urn:oid:1.2.840.114350.1.13.0.1.7.3.698084.8",
                        "value": "1301"
                    }
                ],
                "status": "unknown",
                "class": {
                    "system": "urn:oid:1.2.840.114350.1.72.1.7.7.10.696784.13260",
                    "code": "13",
                    "display": "Support OP Encounter"
                },
                "subject": {
                    "reference": "Patient/edPhy6QzpBNcrE8fup25I9A3",
                    "display": "Beacon, Portia"
                },
                "period": {
                    "start": "2004-11-10",
                    "end": "2004-11-10"
                }
            },
            "search": {
                "mode": "match"
            }
        },
        {
            "link": [
                {
                    "relation": "self",
                    "url": "https://appmarket.epic.com/interconnect-amcurprd-oauth/api/FHIR/R4/Encounter/eYSzJjPt3o94vpW5wDxaMkA3"
                }
            ],
            "fullUrl": "https://appmarket.epic.com/interconnect-amcurprd-oauth/api/FHIR/R4/Encounter/eYSzJjPt3o94vpW5wDxaMkA3",
            "resource": {
                "resourceType": "Encounter",
                "id": "eYSzJjPt3o94vpW5wDxaMkA3",
                "identifier": [
                    {
                        "use": "usual",
                        "system": "urn:oid:1.2.840.114350.1.13.0.1.7.3.698084.8",
                        "value": "1302"
                    }
                ],
                "status": "unknown",
                "class": {
                    "system": "urn:oid:1.2.840.114350.1.72.1.7.7.10.696784.13260",
                    "code": "13",
                    "display": "Support OP Encounter"
                },
                "subject": {
                    "reference": "Patient/edPhy6QzpBNcrE8fup25I9A3",
                    "display": "Beacon, Portia"
                },
                "period": {
                    "start": "2004-10-21",
                    "end": "2004-10-21"
                }
            },
            "search": {
                "mode": "match"
            }
        },
        {
            "link": [
                {
                    "relation": "self",
                    "url": "https://appmarket.epic.com/interconnect-amcurprd-oauth/api/FHIR/R4/Encounter/eqARz11d5SFAyxk1rqF9ZXg3"
                }
            ],
            "fullUrl": "https://appmarket.epic.com/interconnect-amcurprd-oauth/api/FHIR/R4/Encounter/eqARz11d5SFAyxk1rqF9ZXg3",
            "resource": {
                "resourceType": "Encounter",
                "id": "eqARz11d5SFAyxk1rqF9ZXg3",
                "identifier": [
                    {
                        "use": "usual",
                        "system": "urn:oid:1.2.840.114350.1.13.0.1.7.3.698084.8",
                        "value": "1303"
                    }
                ],
                "status": "unknown",
                "class": {
                    "system": "urn:oid:1.2.840.114350.1.72.1.7.7.10.696784.13260",
                    "code": "13",
                    "display": "Support OP Encounter"
                },
                "subject": {
                    "reference": "Patient/edPhy6QzpBNcrE8fup25I9A3",
                    "display": "Beacon, Portia"
                },
                "period": {
                    "start": "2004-09-09",
                    "end": "2004-09-09"
                }
            },
            "search": {
                "mode": "match"
            }
        },
        {
            "link": [
                {
                    "relation": "self",
                    "url": "https://appmarket.epic.com/interconnect-amcurprd-oauth/api/FHIR/R4/Encounter/eYCktV2jeOT7YFzkWsALM4w3"
                }
            ],
            "fullUrl": "https://appmarket.epic.com/interconnect-amcurprd-oauth/api/FHIR/R4/Encounter/eYCktV2jeOT7YFzkWsALM4w3",
            "resource": {
                "resourceType": "Encounter",
                "id": "eYCktV2jeOT7YFzkWsALM4w3",
                "identifier": [
                    {
                        "use": "usual",
                        "system": "urn:oid:1.2.840.114350.1.13.0.1.7.3.698084.8",
                        "value": "1304"
                    }
                ],
                "status": "unknown",
                "class": {
                    "system": "urn:oid:1.2.840.114350.1.72.1.7.7.10.696784.13260",
                    "code": "13",
                    "display": "Support OP Encounter"
                },
                "subject": {
                    "reference": "Patient/edPhy6QzpBNcrE8fup25I9A3",
                    "display": "Beacon, Portia"
                },
                "period": {
                    "start": "2004-06-27",
                    "end": "2004-06-27"
                }
            },
            "search": {
                "mode": "match"
            }
        },
        {
            "link": [
                {
                    "relation": "self",
                    "url": "https://appmarket.epic.com/interconnect-amcurprd-oauth/api/FHIR/R4/Encounter/eFAOHln8pW92QMcBijoscAQ3"
                }
            ],
            "fullUrl": "https://appmarket.epic.com/interconnect-amcurprd-oauth/api/FHIR/R4/Encounter/eFAOHln8pW92QMcBijoscAQ3",
            "resource": {
                "resourceType": "Encounter",
                "id": "eFAOHln8pW92QMcBijoscAQ3",
                "identifier": [
                    {
                        "use": "usual",
                        "system": "urn:oid:1.2.840.114350.1.13.0.1.7.3.698084.8",
                        "value": "1305"
                    }
                ],
                "status": "unknown",
                "class": {
                    "system": "urn:oid:1.2.840.114350.1.72.1.7.7.10.696784.13260",
                    "code": "13",
                    "display": "Support OP Encounter"
                },
                "subject": {
                    "reference": "Patient/edPhy6QzpBNcrE8fup25I9A3",
                    "display": "Beacon, Portia"
                },
                "period": {
                    "start": "2004-05-18",
                    "end": "2004-05-18"
                }
            },
            "search": {
                "mode": "match"
            }
        },
        {
            "link": [
                {
                    "relation": "self",
                    "url": "https://appmarket.epic.com/interconnect-amcurprd-oauth/api/FHIR/R4/Encounter/eZLAQHCM2P9wUPVyj8Ygq-A3"
                }
            ],
            "fullUrl": "https://appmarket.epic.com/interconnect-amcurprd-oauth/api/FHIR/R4/Encounter/eZLAQHCM2P9wUPVyj8Ygq-A3",
            "resource": {
                "resourceType": "Encounter",
                "id": "eZLAQHCM2P9wUPVyj8Ygq-A3",
                "identifier": [
                    {
                        "use": "usual",
                        "system": "urn:oid:1.2.840.114350.1.13.0.1.7.3.698084.8",
                        "value": "1306"
                    }
                ],
                "status": "arrived",
                "class": {
                    "system": "urn:oid:1.2.840.114350.1.72.1.7.7.10.696784.13260",
                    "code": "5",
                    "display": "Appointment"
                },
                "type": [
                    {
                        "coding": [
                            {
                                "system": "urn:oid:1.2.840.114350.1.13.0.1.7.10.698084.30",
                                "code": "101",
                                "display": "Office Visit"
                            }
                        ],
                        "text": "Office Visit"
                    },
                    {
                        "coding": [
                            {
                                "system": "urn:oid:1.2.840.114350.1.13.0.1.7.2.808267",
                                "code": "1004",
                                "display": "Office Visit"
                            }
                        ],
                        "text": "Office Visit"
                    }
                ],
                "subject": {
                    "reference": "Patient/edPhy6QzpBNcrE8fup25I9A3",
                    "display": "Beacon, Portia"
                },
                "participant": [
                    {
                        "period": {
                            "start": "2004-04-23T21:15:00Z",
                            "end": "2004-04-23T21:30:00Z"
                        },
                        "individual": {
                            "reference": "Practitioner/eM5CWtq15N0WJeuCet5bJlQ3",
                            "display": "Physician Family Medicine, MD"
                        }
                    }
                ],
                "period": {
                    "start": "2004-04-23T21:15:00Z",
                    "end": "2004-04-23T21:30:00Z"
                },
                "reasonCode": [
                    {
                        "coding": [
                            {
                                "system": "urn:oid:1.2.840.114350.1.13.0.1.7.2.728286",
                                "code": "83",
                                "display": "Annual Exam"
                            }
                        ],
                        "text": "Annual Exam"
                    }
                ],
                "location": [
                    {
                        "location": {
                            "reference": "Location/e4W4rmGe9QzuGm2Dy4NBqVc0KDe6yGld6HW95UuN-Qd03",
                            "display": "EMC Family Medicine"
                        }
                    }
                ]
            },
            "search": {
                "mode": "match"
            }
        },
        {
            "link": [
                {
                    "relation": "self",
                    "url": "https://appmarket.epic.com/interconnect-amcurprd-oauth/api/FHIR/R4/Encounter/eY5ycyjfCocbmvkbB.-JflQ3"
                }
            ],
            "fullUrl": "https://appmarket.epic.com/interconnect-amcurprd-oauth/api/FHIR/R4/Encounter/eY5ycyjfCocbmvkbB.-JflQ3",
            "resource": {
                "resourceType": "Encounter",
                "id": "eY5ycyjfCocbmvkbB.-JflQ3",
                "identifier": [
                    {
                        "use": "usual",
                        "system": "urn:oid:1.2.840.114350.1.13.0.1.7.3.698084.8",
                        "value": "1307"
                    }
                ],
                "status": "unknown",
                "class": {
                    "system": "urn:oid:1.2.840.114350.1.72.1.7.7.10.696784.13260",
                    "code": "13",
                    "display": "Support OP Encounter"
                },
                "subject": {
                    "reference": "Patient/edPhy6QzpBNcrE8fup25I9A3",
                    "display": "Beacon, Portia"
                },
                "period": {
                    "start": "2004-01-11",
                    "end": "2004-01-11"
                }
            },
            "search": {
                "mode": "match"
            }
        },
        {
            "link": [
                {
                    "relation": "self",
                    "url": "https://appmarket.epic.com/interconnect-amcurprd-oauth/api/FHIR/R4/Encounter/eon2ybJTVClTqmlnNT2Psmw3"
                }
            ],
            "fullUrl": "https://appmarket.epic.com/interconnect-amcurprd-oauth/api/FHIR/R4/Encounter/eon2ybJTVClTqmlnNT2Psmw3",
            "resource": {
                "resourceType": "Encounter",
                "id": "eon2ybJTVClTqmlnNT2Psmw3",
                "identifier": [
                    {
                        "use": "usual",
                        "system": "urn:oid:1.2.840.114350.1.13.0.1.7.3.698084.8",
                        "value": "1308"
                    }
                ],
                "status": "unknown",
                "class": {
                    "system": "urn:oid:1.2.840.114350.1.72.1.7.7.10.696784.13260",
                    "code": "13",
                    "display": "Support OP Encounter"
                },
                "subject": {
                    "reference": "Patient/edPhy6QzpBNcrE8fup25I9A3",
                    "display": "Beacon, Portia"
                },
                "period": {
                    "start": "2003-10-29",
                    "end": "2003-10-29"
                }
            },
            "search": {
                "mode": "match"
            }
        },
        {
            "link": [
                {
                    "relation": "self",
                    "url": "https://appmarket.epic.com/interconnect-amcurprd-oauth/api/FHIR/R4/Encounter/e0TtIcuVrTNu3S1I8Lzi3bg3"
                }
            ],
            "fullUrl": "https://appmarket.epic.com/interconnect-amcurprd-oauth/api/FHIR/R4/Encounter/e0TtIcuVrTNu3S1I8Lzi3bg3",
            "resource": {
                "resourceType": "Encounter",
                "id": "e0TtIcuVrTNu3S1I8Lzi3bg3",
                "identifier": [
                    {
                        "use": "usual",
                        "system": "urn:oid:1.2.840.114350.1.13.0.1.7.3.698084.8",
                        "value": "1309"
                    }
                ],
                "status": "unknown",
                "class": {
                    "system": "urn:oid:1.2.840.114350.1.72.1.7.7.10.696784.13260",
                    "code": "13",
                    "display": "Support OP Encounter"
                },
                "subject": {
                    "reference": "Patient/edPhy6QzpBNcrE8fup25I9A3",
                    "display": "Beacon, Portia"
                },
                "period": {
                    "start": "2003-09-19",
                    "end": "2003-09-19"
                }
            },
            "search": {
                "mode": "match"
            }
        },
        {
            "link": [
                {
                    "relation": "self",
                    "url": "https://appmarket.epic.com/interconnect-amcurprd-oauth/api/FHIR/R4/Encounter/eMTNpyKScowf1Ox8G0ODjLA3"
                }
            ],
            "fullUrl": "https://appmarket.epic.com/interconnect-amcurprd-oauth/api/FHIR/R4/Encounter/eMTNpyKScowf1Ox8G0ODjLA3",
            "resource": {
                "resourceType": "Encounter",
                "id": "eMTNpyKScowf1Ox8G0ODjLA3",
                "identifier": [
                    {
                        "use": "usual",
                        "system": "urn:oid:1.2.840.114350.1.13.0.1.7.3.698084.8",
                        "value": "1310"
                    }
                ],
                "status": "unknown",
                "class": {
                    "system": "urn:oid:1.2.840.114350.1.72.1.7.7.10.696784.13260",
                    "code": "13",
                    "display": "Support OP Encounter"
                },
                "subject": {
                    "reference": "Patient/edPhy6QzpBNcrE8fup25I9A3",
                    "display": "Beacon, Portia"
                },
                "period": {
                    "start": "2003-06-03",
                    "end": "2003-06-03"
                }
            },
            "search": {
                "mode": "match"
            }
        },
        {
            "link": [
                {
                    "relation": "self",
                    "url": "https://appmarket.epic.com/interconnect-amcurprd-oauth/api/FHIR/R4/Encounter/eQRQx60ZTK7mjTH.zgouKpQ3"
                }
            ],
            "fullUrl": "https://appmarket.epic.com/interconnect-amcurprd-oauth/api/FHIR/R4/Encounter/eQRQx60ZTK7mjTH.zgouKpQ3",
            "resource": {
                "resourceType": "Encounter",
                "id": "eQRQx60ZTK7mjTH.zgouKpQ3",
                "identifier": [
                    {
                        "use": "usual",
                        "system": "urn:oid:1.2.840.114350.1.13.0.1.7.3.698084.8",
                        "value": "1312"
                    }
                ],
                "status": "arrived",
                "class": {
                    "system": "urn:oid:1.2.840.114350.1.72.1.7.7.10.696784.13260",
                    "code": "5",
                    "display": "Appointment"
                },
                "type": [
                    {
                        "coding": [
                            {
                                "system": "urn:oid:1.2.840.114350.1.13.0.1.7.10.698084.30",
                                "code": "101",
                                "display": "Office Visit"
                            }
                        ],
                        "text": "Office Visit"
                    },
                    {
                        "coding": [
                            {
                                "system": "urn:oid:1.2.840.114350.1.13.0.1.7.2.808267",
                                "code": "1004",
                                "display": "Office Visit"
                            }
                        ],
                        "text": "Office Visit"
                    }
                ],
                "subject": {
                    "reference": "Patient/edPhy6QzpBNcrE8fup25I9A3",
                    "display": "Beacon, Portia"
                },
                "participant": [
                    {
                        "period": {
                            "start": "2003-04-29T20:30:00Z",
                            "end": "2003-04-29T20:45:00Z"
                        },
                        "individual": {
                            "reference": "Practitioner/eM5CWtq15N0WJeuCet5bJlQ3",
                            "display": "Physician Family Medicine, MD"
                        }
                    }
                ],
                "period": {
                    "start": "2003-04-29T20:30:00Z",
                    "end": "2003-04-29T20:45:00Z"
                },
                "reasonCode": [
                    {
                        "coding": [
                            {
                                "system": "urn:oid:1.2.840.114350.1.13.0.1.7.2.728286",
                                "code": "42",
                                "display": "Establish Care"
                            }
                        ],
                        "text": "Establish Care"
                    },
                    {
                        "coding": [
                            {
                                "system": "urn:oid:1.2.840.114350.1.13.0.1.7.2.728286",
                                "code": "83",
                                "display": "Annual Exam"
                            }
                        ],
                        "text": "Annual Exam"
                    }
                ],
                "location": [
                    {
                        "location": {
                            "reference": "Location/e4W4rmGe9QzuGm2Dy4NBqVc0KDe6yGld6HW95UuN-Qd03",
                            "display": "EMC Family Medicine"
                        }
                    }
                ]
            },
            "search": {
                "mode": "match"
            }
        },
        {
            "link": [
                {
                    "relation": "self",
                    "url": "https://appmarket.epic.com/interconnect-amcurprd-oauth/api/FHIR/R4/Encounter/e6VdJZn967jkLmFX4uX7xHA3"
                }
            ],
            "fullUrl": "https://appmarket.epic.com/interconnect-amcurprd-oauth/api/FHIR/R4/Encounter/e6VdJZn967jkLmFX4uX7xHA3",
            "resource": {
                "resourceType": "Encounter",
                "id": "e6VdJZn967jkLmFX4uX7xHA3",
                "identifier": [
                    {
                        "use": "usual",
                        "system": "urn:oid:1.2.840.114350.1.13.0.1.7.3.698084.8",
                        "value": "1314"
                    }
                ],
                "status": "unknown",
                "class": {
                    "system": "urn:oid:1.2.840.114350.1.72.1.7.7.10.696784.13260",
                    "code": "13",
                    "display": "Support OP Encounter"
                },
                "subject": {
                    "reference": "Patient/edPhy6QzpBNcrE8fup25I9A3",
                    "display": "Beacon, Portia"
                },
                "period": {
                    "start": "2002-10-04",
                    "end": "2002-10-04"
                }
            },
            "search": {
                "mode": "match"
            }
        },
        {
            "link": [
                {
                    "relation": "self",
                    "url": "https://appmarket.epic.com/interconnect-amcurprd-oauth/api/FHIR/R4/Encounter/eVpykWo.fFCji3Q5pzIe5EA3"
                }
            ],
            "fullUrl": "https://appmarket.epic.com/interconnect-amcurprd-oauth/api/FHIR/R4/Encounter/eVpykWo.fFCji3Q5pzIe5EA3",
            "resource": {
                "resourceType": "Encounter",
                "id": "eVpykWo.fFCji3Q5pzIe5EA3",
                "identifier": [
                    {
                        "use": "usual",
                        "system": "urn:oid:1.2.840.114350.1.13.0.1.7.3.698084.8",
                        "value": "1315"
                    }
                ],
                "status": "unknown",
                "class": {
                    "system": "urn:oid:1.2.840.114350.1.72.1.7.7.10.696784.13260",
                    "code": "13",
                    "display": "Support OP Encounter"
                },
                "subject": {
                    "reference": "Patient/edPhy6QzpBNcrE8fup25I9A3",
                    "display": "Beacon, Portia"
                },
                "period": {
                    "start": "2002-06-03",
                    "end": "2002-06-03"
                }
            },
            "search": {
                "mode": "match"
            }
        },
        {
            "link": [
                {
                    "relation": "self",
                    "url": "https://appmarket.epic.com/interconnect-amcurprd-oauth/api/FHIR/R4/Encounter/eKjN1EIMa8CeCWmhjV143xA3"
                }
            ],
            "fullUrl": "https://appmarket.epic.com/interconnect-amcurprd-oauth/api/FHIR/R4/Encounter/eKjN1EIMa8CeCWmhjV143xA3",
            "resource": {
                "resourceType": "Encounter",
                "id": "eKjN1EIMa8CeCWmhjV143xA3",
                "identifier": [
                    {
                        "use": "usual",
                        "system": "urn:oid:1.2.840.114350.1.13.0.1.7.3.698084.8",
                        "value": "1316"
                    }
                ],
                "status": "unknown",
                "class": {
                    "system": "urn:oid:1.2.840.114350.1.72.1.7.7.10.696784.13260",
                    "code": "13",
                    "display": "Support OP Encounter"
                },
                "subject": {
                    "reference": "Patient/edPhy6QzpBNcrE8fup25I9A3",
                    "display": "Beacon, Portia"
                },
                "period": {
                    "start": "2001-10-04",
                    "end": "2001-10-04"
                }
            },
            "search": {
                "mode": "match"
            }
        },
        {
            "link": [
                {
                    "relation": "self",
                    "url": "https://appmarket.epic.com/interconnect-amcurprd-oauth/api/FHIR/R4/Encounter/ehQSO1uV4C91yMoM6dBpQzw3"
                }
            ],
            "fullUrl": "https://appmarket.epic.com/interconnect-amcurprd-oauth/api/FHIR/R4/Encounter/ehQSO1uV4C91yMoM6dBpQzw3",
            "resource": {
                "resourceType": "Encounter",
                "id": "ehQSO1uV4C91yMoM6dBpQzw3",
                "identifier": [
                    {
                        "use": "usual",
                        "system": "urn:oid:1.2.840.114350.1.13.0.1.7.3.698084.8",
                        "value": "1317"
                    }
                ],
                "status": "unknown",
                "class": {
                    "system": "urn:oid:1.2.840.114350.1.72.1.7.7.10.696784.13260",
                    "code": "13",
                    "display": "Support OP Encounter"
                },
                "subject": {
                    "reference": "Patient/edPhy6QzpBNcrE8fup25I9A3",
                    "display": "Beacon, Portia"
                },
                "period": {
                    "start": "2001-06-08",
                    "end": "2001-06-08"
                }
            },
            "search": {
                "mode": "match"
            }
        },
        {
            "link": [
                {
                    "relation": "self",
                    "url": "https://appmarket.epic.com/interconnect-amcurprd-oauth/api/FHIR/R4/Encounter/eJTN6KoNyLitQqerIIKYiYg3"
                }
            ],
            "fullUrl": "https://appmarket.epic.com/interconnect-amcurprd-oauth/api/FHIR/R4/Encounter/eJTN6KoNyLitQqerIIKYiYg3",
            "resource": {
                "resourceType": "Encounter",
                "id": "eJTN6KoNyLitQqerIIKYiYg3",
                "identifier": [
                    {
                        "use": "usual",
                        "system": "urn:oid:1.2.840.114350.1.13.0.1.7.3.698084.8",
                        "value": "1318"
                    }
                ],
                "status": "unknown",
                "class": {
                    "system": "urn:oid:1.2.840.114350.1.72.1.7.7.10.696784.13260",
                    "code": "13",
                    "display": "Support OP Encounter"
                },
                "subject": {
                    "reference": "Patient/edPhy6QzpBNcrE8fup25I9A3",
                    "display": "Beacon, Portia"
                },
                "period": {
                    "start": "2001-06-08",
                    "end": "2001-06-08"
                }
            },
            "search": {
                "mode": "match"
            }
        },
        {
            "link": [
                {
                    "relation": "self",
                    "url": "https://appmarket.epic.com/interconnect-amcurprd-oauth/api/FHIR/R4/Encounter/emcx5SGe.NBwvCbvwWhdV3A3"
                }
            ],
            "fullUrl": "https://appmarket.epic.com/interconnect-amcurprd-oauth/api/FHIR/R4/Encounter/emcx5SGe.NBwvCbvwWhdV3A3",
            "resource": {
                "resourceType": "Encounter",
                "id": "emcx5SGe.NBwvCbvwWhdV3A3",
                "identifier": [
                    {
                        "use": "usual",
                        "system": "urn:oid:1.2.840.114350.1.13.0.1.7.3.698084.8",
                        "value": "1319"
                    }
                ],
                "status": "unknown",
                "class": {
                    "system": "urn:oid:1.2.840.114350.1.72.1.7.7.10.696784.13260",
                    "code": "13",
                    "display": "Support OP Encounter"
                },
                "subject": {
                    "reference": "Patient/edPhy6QzpBNcrE8fup25I9A3",
                    "display": "Beacon, Portia"
                },
                "period": {
                    "start": "2001-06-08",
                    "end": "2001-06-08"
                }
            },
            "search": {
                "mode": "match"
            }
        },
        {
            "link": [
                {
                    "relation": "self",
                    "url": "https://appmarket.epic.com/interconnect-amcurprd-oauth/api/FHIR/R4/Encounter/e3bloR9A4Ch8uzXVr6x7Zxw3"
                }
            ],
            "fullUrl": "https://appmarket.epic.com/interconnect-amcurprd-oauth/api/FHIR/R4/Encounter/e3bloR9A4Ch8uzXVr6x7Zxw3",
            "resource": {
                "resourceType": "Encounter",
                "id": "e3bloR9A4Ch8uzXVr6x7Zxw3",
                "identifier": [
                    {
                        "use": "usual",
                        "system": "urn:oid:1.2.840.114350.1.13.0.1.7.3.698084.8",
                        "value": "1320"
                    }
                ],
                "status": "unknown",
                "class": {
                    "system": "urn:oid:1.2.840.114350.1.72.1.7.7.10.696784.13260",
                    "code": "13",
                    "display": "Support OP Encounter"
                },
                "subject": {
                    "reference": "Patient/edPhy6QzpBNcrE8fup25I9A3",
                    "display": "Beacon, Portia"
                },
                "period": {
                    "start": "2000-10-09",
                    "end": "2000-10-09"
                }
            },
            "search": {
                "mode": "match"
            }
        },
        {
            "link": [
                {
                    "relation": "self",
                    "url": "https://appmarket.epic.com/interconnect-amcurprd-oauth/api/FHIR/R4/Encounter/eQBtTnyzIOmWOxNVNKNMwXw3"
                }
            ],
            "fullUrl": "https://appmarket.epic.com/interconnect-amcurprd-oauth/api/FHIR/R4/Encounter/eQBtTnyzIOmWOxNVNKNMwXw3",
            "resource": {
                "resourceType": "Encounter",
                "id": "eQBtTnyzIOmWOxNVNKNMwXw3",
                "identifier": [
                    {
                        "use": "usual",
                        "system": "urn:oid:1.2.840.114350.1.13.0.1.7.3.698084.8",
                        "value": "1321"
                    }
                ],
                "status": "unknown",
                "class": {
                    "system": "urn:oid:1.2.840.114350.1.72.1.7.7.10.696784.13260",
                    "code": "13",
                    "display": "Support OP Encounter"
                },
                "subject": {
                    "reference": "Patient/edPhy6QzpBNcrE8fup25I9A3",
                    "display": "Beacon, Portia"
                },
                "period": {
                    "start": "2000-10-09",
                    "end": "2000-10-09"
                }
            },
            "search": {
                "mode": "match"
            }
        },
        {
            "link": [
                {
                    "relation": "self",
                    "url": "https://appmarket.epic.com/interconnect-amcurprd-oauth/api/FHIR/R4/Encounter/e5kJUUjmIhTbei5WropjUKg3"
                }
            ],
            "fullUrl": "https://appmarket.epic.com/interconnect-amcurprd-oauth/api/FHIR/R4/Encounter/e5kJUUjmIhTbei5WropjUKg3",
            "resource": {
                "resourceType": "Encounter",
                "id": "e5kJUUjmIhTbei5WropjUKg3",
                "identifier": [
                    {
                        "use": "usual",
                        "system": "urn:oid:1.2.840.114350.1.13.0.1.7.3.698084.8",
                        "value": "1322"
                    }
                ],
                "status": "unknown",
                "class": {
                    "system": "urn:oid:1.2.840.114350.1.72.1.7.7.10.696784.13260",
                    "code": "13",
                    "display": "Support OP Encounter"
                },
                "subject": {
                    "reference": "Patient/edPhy6QzpBNcrE8fup25I9A3",
                    "display": "Beacon, Portia"
                },
                "period": {
                    "start": "2000-10-09",
                    "end": "2000-10-09"
                }
            },
            "search": {
                "mode": "match"
            }
        },
        {
            "link": [
                {
                    "relation": "self",
                    "url": "https://appmarket.epic.com/interconnect-amcurprd-oauth/api/FHIR/R4/EpisodeOfCare/e5-kGqBTSPVp3TaaY-FlmLA3"
                }
            ],
            "fullUrl": "https://appmarket.epic.com/interconnect-amcurprd-oauth/api/FHIR/R4/EpisodeOfCare/e5-kGqBTSPVp3TaaY-FlmLA3",
            "resource": {
                "resourceType": "EpisodeOfCare",
                "id": "e5-kGqBTSPVp3TaaY-FlmLA3",
                "extension": [
                    {
                        "valueString": "ONCOLOGY TREATMENT",
                        "url": "http://open.epic.com/FHIR/StructureDefinition/extension/episode-name"
                    }
                ],
                "status": "active",
                "type": [
                    {
                        "coding": [
                            {
                                "system": "urn:oid:1.2.840.114350.1.13.0.1.7.2.726668",
                                "code": "10",
                                "display": "ONCOLOGY TREATMENT"
                            },
                            {
                                "system": "urn:oid:1.2.840.114350.1.13.0.1.7.4.726668.130",
                                "code": "18",
                                "display": "Beacon - Treatment Plan"
                            }
                        ],
                        "text": "ONCOLOGY TREATMENT"
                    }
                ],
                "diagnosis": [
                    {
                        "condition": {
                            "reference": "Condition/e3Y3.dZKst.39VXQqtx9X.g3",
                            "type": "Condition",
                            "display": "Non-Hodgkin's lymphoma (CMS/HCC)"
                        }
                    },
                    {
                        "condition": {
                            "reference": "Condition/eQvwd0alQnxXdl7R.7JkcYw3",
                            "type": "Condition",
                            "display": "Laryngeal cancer (CMS/HCC)"
                        }
                    }
                ],
                "patient": {
                    "reference": "Patient/edPhy6QzpBNcrE8fup25I9A3",
                    "type": "Patient",
                    "display": "Beacon, Portia"
                },
                "period": {
                    "start": "2013-09-11"
                },
                "team": [
                    {
                        "reference": "CareTeam/eos7WY-HQUsSx12eXhKr-wQ.TqW5E4pK88ZRZBkIvfAc3",
                        "type": "CareTeam"
                    }
                ]
            },
            "search": {
                "mode": "include"
            }
        },
        {
            "link": [
                {
                    "relation": "self",
                    "url": "https://appmarket.epic.com/interconnect-amcurprd-oauth/api/FHIR/R4/Patient/edPhy6QzpBNcrE8fup25I9A3"
                }
            ],
            "fullUrl": "https://appmarket.epic.com/interconnect-amcurprd-oauth/api/FHIR/R4/Patient/edPhy6QzpBNcrE8fup25I9A3",
            "resource": {
                "resourceType": "Patient",
                "id": "edPhy6QzpBNcrE8fup25I9A3",
                "extension": [
                    {
                        "extension": [
                            {
                                "valueCoding": {
                                    "system": "urn:oid:2.16.840.1.113883.6.238",
                                    "code": "2106-3",
                                    "display": "White"
                                },
                                "url": "ombCategory"
                            },
                            {
                                "valueString": "White",
                                "url": "text"
                            }
                        ],
                        "url": "http://hl7.org/fhir/us/core/StructureDefinition/us-core-race"
                    },
                    {
                        "extension": [
                            {
                                "valueCoding": {
                                    "system": "urn:oid:2.16.840.1.113883.6.238",
                                    "code": "2186-5",
                                    "display": "Not Hispanic or Latino"
                                },
                                "url": "ombCategory"
                            },
                            {
                                "valueString": "Not Hispanic or Latino",
                                "url": "text"
                            }
                        ],
                        "url": "http://hl7.org/fhir/us/core/StructureDefinition/us-core-ethnicity"
                    },
                    {
                        "valueCodeableConcept": {
                            "coding": [
                                {
                                    "system": "urn:oid:1.2.840.114350.1.13.0.1.7.10.698084.130.657370.19999000",
                                    "code": "female",
                                    "display": "female"
                                }
                            ]
                        },
                        "url": "http://open.epic.com/FHIR/StructureDefinition/extension/legal-sex"
                    },
                    {
                        "valueCodeableConcept": {
                            "coding": [
                                {
                                    "system": "urn:oid:1.2.840.114350.1.13.0.1.7.10.698084.130.657370.19999000",
                                    "code": "female",
                                    "display": "female"
                                }
                            ]
                        },
                        "url": "http://open.epic.com/FHIR/StructureDefinition/extension/sex-for-clinical-use"
                    },
                    {
                        "valueCode": "F",
                        "url": "http://hl7.org/fhir/us/core/StructureDefinition/us-core-birthsex"
                    }
                ],
                "identifier": [
                    {
                        "use": "usual",
                        "system": "urn:oid:2.16.840.1.113883.4.1",
                        "value": "794-89-5238"
                    },
                    {
                        "use": "usual",
                        "type": {
                            "text": "CEID"
                        },
                        "system": "urn:epic:apporchard.curprod",
                        "value": "AO1VQT23GPXSC7L"
                    },
                    {
                        "use": "usual",
                        "type": {
                            "text": "EPIC"
                        },
                        "system": "urn:oid:1.2.840.114350.1.1",
                        "value": "E2647"
                    },
                    {
                        "use": "usual",
                        "type": {
                            "text": "EXTERNAL"
                        },
                        "system": "urn:oid:1.2.840.114350.1.13.0.1.7.2.698084",
                        "value": "Z4525"
                    },
                    {
                        "use": "usual",
                        "type": {
                            "text": "FHIR"
                        },
                        "system": "http://open.epic.com/FHIR/StructureDefinition/patient-dstu2-fhir-id",
                        "value": "THLAiOVmMIvtm-6AviiIekr4Jw-pjfj0C7IV--iiIlnMB"
                    },
                    {
                        "use": "usual",
                        "type": {
                            "text": "FHIR STU3"
                        },
                        "system": "http://open.epic.com/FHIR/StructureDefinition/patient-fhir-id",
                        "value": "edPhy6QzpBNcrE8fup25I9A3"
                    },
                    {
                        "use": "usual",
                        "type": {
                            "text": "INTERNAL"
                        },
                        "system": "urn:oid:1.2.840.114350.1.13.0.1.7.2.698084",
                        "value": "     Z4525"
                    },
                    {
                        "use": "usual",
                        "type": {
                            "text": "MRN"
                        },
                        "system": "urn:oid:1.2.840.114350.1.13.0.1.7.5.737384.14",
                        "value": "202413"
                    },
                    {
                        "use": "usual",
                        "type": {
                            "text": "MYCHARTLOGIN"
                        },
                        "system": "urn:oid:1.2.840.114350.1.13.0.1.7.3.878082.110",
                        "value": "BEACONPORTIA"
                    },
                    {
                        "use": "usual",
                        "type": {
                            "text": "WPRINTERNAL"
                        },
                        "system": "urn:oid:1.2.840.114350.1.13.0.1.7.2.878082",
                        "value": "74"
                    }
                ],
                "active": true,
                "name": [
                    {
                        "use": "official",
                        "text": "Portia Beacon",
                        "family": "Beacon",
                        "given": [
                            "Portia"
                        ]
                    },
                    {
                        "use": "usual",
                        "text": "Portia Beacon",
                        "family": "Beacon",
                        "given": [
                            "Portia"
                        ]
                    }
                ],
                "telecom": [
                    {
                        "system": "phone",
                        "value": "608-555-4578",
                        "use": "home"
                    },
                    {
                        "system": "phone",
                        "value": "608-555-4785",
                        "use": "work"
                    },
                    {
                        "system": "phone",
                        "value": "608-555-7774",
                        "use": "mobile"
                    }
                ],
                "gender": "female",
                "birthDate": "1981-05-27",
                "deceasedBoolean": false,
                "address": [
                    {
                        "use": "home",
                        "line": [
                            "12457 Snowbird Lane"
                        ],
                        "city": "Madison",
                        "district": "DANE",
                        "state": "WI",
                        "postalCode": "53719",
                        "country": "US"
                    }
                ],
                "maritalStatus": {
                    "text": "Married"
                },
                "contact": [
                    {
                        "relationship": [
                            {
                                "coding": [
                                    {
                                        "system": "http://terminology.hl7.org/CodeSystem/v2-0131",
                                        "code": "C",
                                        "display": "Emergency Contact"
                                    },
                                    {
                                        "system": "urn:oid:1.2.840.114350.1.13.0.1.7.4.827665.1000",
                                        "code": "17",
                                        "display": "Spouse"
                                    }
                                ],
                                "text": "Spouse"
                            }
                        ],
                        "name": {
                            "use": "usual",
                            "text": "Randy Steele"
                        },
                        "telecom": [
                            {
                                "system": "phone",
                                "value": "608-555-4578",
                                "use": "home"
                            }
                        ],
                        "address": {
                            "use": "home",
                            "line": [
                                "12457 Snowbird Lane"
                            ],
                            "city": "Madison",
                            "district": "DANE",
                            "state": "WI",
                            "postalCode": "53719",
                            "country": "US"
                        }
                    },
                    {
                        "relationship": [
                            {
                                "coding": [
                                    {
                                        "system": "http://terminology.hl7.org/CodeSystem/v2-0131",
                                        "code": "E",
                                        "display": "Employer"
                                    }
                                ]
                            }
                        ],
                        "address": {
                            "use": "work",
                            "country": "US"
                        },
                        "organization": {
                            "display": "Whispering Pines Retirement Home"
                        }
                    }
                ],
                "communication": [
                    {
                        "language": {
                            "coding": [
                                {
                                    "system": "urn:ietf:bcp:47",
                                    "code": "en",
                                    "display": "English"
                                }
                            ],
                            "text": "English"
                        },
                        "preferred": true
                    }
                ],
                "generalPractitioner": [
                    {
                        "reference": "Practitioner/eM5CWtq15N0WJeuCet5bJlQ3",
                        "type": "Practitioner",
                        "display": "Physician Family Medicine, MD"
                    }
                ],
                "managingOrganization": {
                    "reference": "Organization/enRyWnSP963FYDpoks4NHOA3",
                    "display": "Epic Hospital System"
                }
            },
            "search": {
                "mode": "include"
            }
        }
    ]
}