{
    "resourceType": "Bundle",
    "type": "searchset",
    "total": 18,
    "link": [
        {
            "relation": "self",
            "url": "https://appmarket.epic.com/interconnect-amcurprd-oauth/api/FHIR/R4/Encounter?_include=Encounter:condition&_include=Encounter:episodeOfCare&_include=Encounter:partOf&_include=Encounter:subject&_format=json&patient=eiyTTBLEMcm6ZLYF5TkiTdA3"
        }
    ],
    "entry": [
        {
            "link": [
                {
                    "relation": "self",
                    "url": "https://appmarket.epic.com/interconnect-amcurprd-oauth/api/FHIR/R4/Encounter/eYgbRGxCOR-wBxhz2-vI8ww3"
                }
            ],
            "fullUrl": "https://appmarket.epic.com/interconnect-amcurprd-oauth/api/FHIR/R4/Encounter/eYgbRGxCOR-wBxhz2-vI8ww3",
            "resource": {
                "resourceType": "Encounter",
                "id": "eYgbRGxCOR-wBxhz2-vI8ww3",
                "identifier": [
                    {
                        "use": "usual",
                        "system": "urn:oid:1.2.840.114350.1.13.0.1.7.3.698084.8",
                        "value": "35055"
                    }
                ],
                "status": "in-progress",
                "class": {
                    "system": "urn:oid:1.2.840.114350.1.72.1.7.7.10.696784.13260",
                    "code": "13",
                    "display": "Support OP Encounter"
                },
                "type": [
                    {
                        "coding": [
                            {
                                "system": "urn:oid:1.2.840.114350.1.13.0.1.7.10.698084.30",
                                "code": "101",
                                "display": "Office Visit"
                            }
                        ],
                        "text": "Office Visit"
                    }
                ],
                "subject": {
                    "reference": "Patient/eiyTTBLEMcm6ZLYF5TkiTdA3",
                    "display": "Kidney, Kathryn A"
                },
                "episodeOfCare": [
                    {
                        "reference": "EpisodeOfCare/eJpREQERJei58-2Ors.mdpg3",
                        "type": "EpisodeOfCare",
                        "display": "Kidney Transplant \u2013 4/12/2006  (#1)"
                    }
                ],
                "period": {
                    "start": "2021-07-14",
                    "end": "2021-07-14"
                },
                "location": [
                    {
                        "location": {
                            "reference": "Location/e9zmTFYbRlvNwfsvTidSDSv.qlLJ3KHlDzoV643sQzAU3",
                            "display": "EMC Transplant"
                        }
                    }
                ]
            },
            "search": {
                "mode": "match"
            }
        },
        {
            "link": [
                {
                    "relation": "self",
                    "url": "https://appmarket.epic.com/interconnect-amcurprd-oauth/api/FHIR/R4/Encounter/ei1GFFBydkfdAQuroYKicUw3"
                }
            ],
            "fullUrl": "https://appmarket.epic.com/interconnect-amcurprd-oauth/api/FHIR/R4/Encounter/ei1GFFBydkfdAQuroYKicUw3",
            "resource": {
                "resourceType": "Encounter",
                "id": "ei1GFFBydkfdAQuroYKicUw3",
                "identifier": [
                    {
                        "use": "usual",
                        "system": "urn:oid:1.2.840.114350.1.13.0.1.7.3.698084.8",
                        "value": "20282"
                    }
                ],
                "status": "unknown",
                "class": {
                    "system": "urn:oid:1.2.840.114350.1.72.1.7.7.10.696784.13260",
                    "code": "1",
                    "display": "Surgery Case"
                },
                "type": [
                    {
                        "coding": [
                            {
                                "system": "urn:oid:1.2.840.114350.1.13.0.1.7.10.698084.30",
                                "code": "51",
                                "display": "Surgery"
                            }
                        ],
                        "text": "Surgery"
                    }
                ],
                "subject": {
                    "reference": "Patient/eiyTTBLEMcm6ZLYF5TkiTdA3",
                    "display": "Kidney, Kathryn A"
                },
                "period": {
                    "start": "2015-02-04",
                    "end": "2015-02-04"
                },
                "location": [
                    {
                        "location": {
                            "reference": "Location/e2z032KE5XnuCAgr9ImSZ0Q3",
                            "display": "EHS ASC"
                        }
                    }
                ]
            },
            "search": {
                "mode": "match"
            }
        },
        {
            "link": [
                {
                    "relation": "self",
                    "url": "https://appmarket.epic.com/interconnect-amcurprd-oauth/api/FHIR/R4/Encounter/eH6gb4bHr597rJ7DNrAnezA3"
                }
            ],
            "fullUrl": "https://appmarket.epic.com/interconnect-amcurprd-oauth/api/FHIR/R4/Encounter/eH6gb4bHr597rJ7DNrAnezA3",
            "resource": {
                "resourceType": "Encounter",
                "id": "eH6gb4bHr597rJ7DNrAnezA3",
                "identifier": [
                    {
                        "use": "usual",
                        "system": "urn:oid:1.2.840.114350.1.13.0.1.7.3.698084.8",
                        "value": "9558"
                    }
                ],
                "status": "finished",
                "class": {
                    "system": "urn:oid:1.2.840.114350.1.72.1.7.7.10.696784.13260",
                    "code": "13",
                    "display": "Support OP Encounter"
                },
                "type": [
                    {
                        "coding": [
                            {
                                "system": "urn:oid:1.2.840.114350.1.13.0.1.7.10.698084.30",
                                "code": "150",
                                "display": "Abstract"
                            }
                        ],
                        "text": "Abstract"
                    }
                ],
                "subject": {
                    "reference": "Patient/eiyTTBLEMcm6ZLYF5TkiTdA3",
                    "display": "Kidney, Kathryn A"
                },
                "episodeOfCare": [
                    {
                        "reference": "EpisodeOfCare/eJpREQERJei58-2Ors.mdpg3",
                        "type": "EpisodeOfCare",
                        "display": "Kidney Transplant \u2013 4/12/2006  (#1)"
                    }
                ],
                "period": {
                    "start": "2013-11-12",
                    "end": "2013-11-12"
                },
                "location": [
                    {
                        "location": {
                            "reference": "Location/e.zUbzUZH9WErlJkdM0-hMZY7Z6JkVK.ftghaWm0ZCLs3",
                            "display": "EMH Abdominal Transplant"
                        }
                    }
                ]
            },
            "search": {
                "mode": "match"
            }
        },
        {
            "link": [
                {
                    "relation": "self",
                    "url": "https://appmarket.epic.com/interconnect-amcurprd-oauth/api/FHIR/R4/Encounter/elzeBk-TM9.ayCqKIJ.amLg3"
                }
            ],
            "fullUrl": "https://appmarket.epic.com/interconnect-amcurprd-oauth/api/FHIR/R4/Encounter/elzeBk-TM9.ayCqKIJ.amLg3",
            "resource": {
                "resourceType": "Encounter",
                "id": "elzeBk-TM9.ayCqKIJ.amLg3",
                "identifier": [
                    {
                        "use": "usual",
                        "system": "urn:oid:1.2.840.114350.1.13.0.1.7.3.698084.8",
                        "value": "9559"
                    }
                ],
                "status": "finished",
                "class": {
                    "system": "urn:oid:1.2.840.114350.1.72.1.7.7.10.696784.13260",
                    "code": "13",
                    "display": "Support OP Encounter"
                },
                "type": [
                    {
                        "coding": [
                            {
                                "system": "urn:oid:1.2.840.114350.1.13.0.1.7.10.698084.30",
                                "code": "111",
                                "display": "Orders Only"
                            }
                        ],
                        "text": "Orders Only"
                    }
                ],
                "subject": {
                    "reference": "Patient/eiyTTBLEMcm6ZLYF5TkiTdA3",
                    "display": "Kidney, Kathryn A"
                },
                "period": {
                    "start": "2013-10-05",
                    "end": "2013-10-05"
                },
                "location": [
                    {
                        "location": {
                            "reference": "Location/e.zUbzUZH9WErlJkdM0-hMZY7Z6JkVK.ftghaWm0ZCLs3",
                            "display": "EMH Abdominal Transplant"
                        }
                    }
                ]
            },
            "search": {
                "mode": "match"
            }
        },
        {
            "link": [
                {
                    "relation": "self",
                    "url": "https://appmarket.epic.com/interconnect-amcurprd-oauth/api/FHIR/R4/Encounter/ecmHzSqn0KS7Y6CUaBCNKMA3"
                }
            ],
            "fullUrl": "https://appmarket.epic.com/interconnect-amcurprd-oauth/api/FHIR/R4/Encounter/ecmHzSqn0KS7Y6CUaBCNKMA3",
            "resource": {
                "resourceType": "Encounter",
                "id": "ecmHzSqn0KS7Y6CUaBCNKMA3",
                "identifier": [
                    {
                        "use": "usual",
                        "system": "urn:oid:1.2.840.114350.1.13.0.1.7.3.698084.8",
                        "value": "9561"
                    }
                ],
                "status": "in-progress",
                "class": {
                    "system": "urn:oid:1.2.840.114350.1.72.1.7.7.10.696784.13260",
                    "code": "13",
                    "display": "Support OP Encounter"
                },
                "type": [
                    {
                        "coding": [
                            {
                                "system": "urn:oid:1.2.840.114350.1.13.0.1.7.10.698084.30",
                                "code": "150",
                                "display": "Abstract"
                            }
                        ],
                        "text": "Abstract"
                    }
                ],
                "subject": {
                    "reference": "Patient/eiyTTBLEMcm6ZLYF5TkiTdA3",
                    "display": "Kidney, Kathryn A"
                },
                "episodeOfCare": [
                    {
                        "reference": "EpisodeOfCare/eJpREQERJei58-2Ors.mdpg3",
                        "type": "EpisodeOfCare",
                        "display": "Kidney Transplant \u2013 4/12/2006  (#1)"
                    }
                ],
                "period": {
                    "start": "2013-04-12",
                    "end": "2013-04-12"
                },
                "reasonCode": [
                    {
                        "coding": [
                            {
                                "system": "urn:oid:1.2.840.114350.1.13.0.1.7.2.728286",
                                "code": "1410000002",
                                "display": "Kidney Transplant"
                            }
                        ],
                        "text": "Kidney Transplant"
                    }
                ],
                "location": [
                    {
                        "location": {
                            "reference": "Location/e.zUbzUZH9WErlJkdM0-hMZY7Z6JkVK.ftghaWm0ZCLs3",
                            "display": "EMH Abdominal Transplant"
                        }
                    }
                ]
            },
            "search": {
                "mode": "match"
            }
        },
        {
            "link": [
                {
                    "relation": "self",
                    "url": "https://appmarket.epic.com/interconnect-amcurprd-oauth/api/FHIR/R4/Encounter/el3a2HYo5aBhnDcYyN6q1Pg3"
                }
            ],
            "fullUrl": "https://appmarket.epic.com/interconnect-amcurprd-oauth/api/FHIR/R4/Encounter/el3a2HYo5aBhnDcYyN6q1Pg3",
            "resource": {
                "resourceType": "Encounter",
                "id": "el3a2HYo5aBhnDcYyN6q1Pg3",
                "identifier": [
                    {
                        "use": "usual",
                        "system": "urn:oid:1.2.840.114350.1.13.0.1.7.3.698084.8",
                        "value": "9562"
                    }
                ],
                "status": "finished",
                "class": {
                    "system": "urn:oid:1.2.840.114350.1.72.1.7.7.10.696784.13260",
                    "code": "13",
                    "display": "Support OP Encounter"
                },
                "type": [
                    {
                        "coding": [
                            {
                                "system": "urn:oid:1.2.840.114350.1.13.0.1.7.10.698084.30",
                                "code": "150",
                                "display": "Abstract"
                            }
                        ],
                        "text": "Abstract"
                    }
                ],
                "subject": {
                    "reference": "Patient/eiyTTBLEMcm6ZLYF5TkiTdA3",
                    "display": "Kidney, Kathryn A"
                },
                "period": {
                    "start": "2013-04-12",
                    "end": "2013-04-12"
                },
                "location": [
                    {
                        "location": {
                            "reference": "Location/e4W4rmGe9QzuGm2Dy4NBqVc0KDe6yGld6HW95UuN-Qd03",
                            "display": "EMC Family Medicine"
                        }
                    }
                ]
            },
            "search": {
                "mode": "match"
            }
        },
        {
            "link": [
                {
                    "relation": "self",
                    "url": "https://appmarket.epic.com/interconnect-amcurprd-oauth/api/FHIR/R4/Encounter/eFYm26ERGOWEtPgCUirf5Rg3"
                }
            ],
            "fullUrl": "https://appmarket.epic.com/interconnect-amcurprd-oauth/api/FHIR/R4/Encounter/eFYm26ERGOWEtPgCUirf5Rg3",
            "resource": {
                "resourceType": "Encounter",
                "id": "eFYm26ERGOWEtPgCUirf5Rg3",
                "identifier": [
                    {
                        "use": "usual",
                        "system": "urn:oid:1.2.840.114350.1.13.0.1.7.3.698084.8",
                        "value": "9564"
                    }
                ],
                "status": "unknown",
                "class": {
                    "system": "urn:oid:1.2.840.114350.1.72.1.7.7.10.696784.13260",
                    "code": "13",
                    "display": "Support OP Encounter"
                },
                "subject": {
                    "reference": "Patient/eiyTTBLEMcm6ZLYF5TkiTdA3",
                    "display": "Kidney, Kathryn A"
                },
                "period": {
                    "start": "2012-01-14",
                    "end": "2012-01-14"
                }
            },
            "search": {
                "mode": "match"
            }
        },
        {
            "link": [
                {
                    "relation": "self",
                    "url": "https://appmarket.epic.com/interconnect-amcurprd-oauth/api/FHIR/R4/Encounter/eFBYJ82JCC9PsHu-lSPuw1w3"
                }
            ],
            "fullUrl": "https://appmarket.epic.com/interconnect-amcurprd-oauth/api/FHIR/R4/Encounter/eFBYJ82JCC9PsHu-lSPuw1w3",
            "resource": {
                "resourceType": "Encounter",
                "id": "eFBYJ82JCC9PsHu-lSPuw1w3",
                "identifier": [
                    {
                        "use": "usual",
                        "system": "urn:oid:1.2.840.114350.1.13.0.1.7.3.698084.8",
                        "value": "9565"
                    }
                ],
                "status": "unknown",
                "class": {
                    "system": "urn:oid:1.2.840.114350.1.72.1.7.7.10.696784.13260",
                    "code": "13",
                    "display": "Support OP Encounter"
                },
                "subject": {
                    "reference": "Patient/eiyTTBLEMcm6ZLYF5TkiTdA3",
                    "display": "Kidney, Kathryn A"
                },
                "period": {
                    "start": "2011-07-22",
                    "end": "2011-07-22"
                }
            },
            "search": {
                "mode": "match"
            }
        },
        {
            "link": [
                {
                    "relation": "self",
                    "url": "https://appmarket.epic.com/interconnect-amcurprd-oauth/api/FHIR/R4/Encounter/ecM5l8KFFTIIdyzncsVU0uA3"
                }
            ],
            "fullUrl": "https://appmarket.epic.com/interconnect-amcurprd-oauth/api/FHIR/R4/Encounter/ecM5l8KFFTIIdyzncsVU0uA3",
            "resource": {
                "resourceType": "Encounter",
                "id": "ecM5l8KFFTIIdyzncsVU0uA3",
                "identifier": [
                    {
                        "use": "usual",
                        "system": "urn:oid:1.2.840.114350.1.13.0.1.7.3.698084.8",
                        "value": "9566"
                    }
                ],
                "status": "unknown",
                "class": {
                    "system": "urn:oid:1.2.840.114350.1.72.1.7.7.10.696784.13260",
                    "code": "13",
                    "display": "Support OP Encounter"
                },
                "subject": {
                    "reference": "Patient/eiyTTBLEMcm6ZLYF5TkiTdA3",
                    "display": "Kidney, Kathryn A"
                },
                "period": {
                    "start": "2011-07-22",
                    "end": "2011-07-22"
                }
            },
            "search": {
                "mode": "match"
            }
        },
        {
            "link": [
                {
                    "relation": "self",
                    "url": "https://appmarket.epic.com/interconnect-amcurprd-oauth/api/FHIR/R4/Encounter/eD2e-EoocIqXD9CYuChrbIQ3"
                }
            ],
            "fullUrl": "https://appmarket.epic.com/interconnect-amcurprd-oauth/api/FHIR/R4/Encounter/eD2e-EoocIqXD9CYuChrbIQ3",
            "resource": {
                "resourceType": "Encounter",
                "id": "eD2e-EoocIqXD9CYuChrbIQ3",
                "identifier": [
                    {
                        "use": "usual",
                        "system": "urn:oid:1.2.840.114350.1.13.0.1.7.3.698084.8",
                        "value": "9567"
                    }
                ],
                "status": "unknown",
                "class": {
                    "system": "urn:oid:1.2.840.114350.1.72.1.7.7.10.696784.13260",
                    "code": "13",
                    "display": "Support OP Encounter"
                },
                "subject": {
                    "reference": "Patient/eiyTTBLEMcm6ZLYF5TkiTdA3",
                    "display": "Kidney, Kathryn A"
                },
                "period": {
                    "start": "2011-07-22",
                    "end": "2011-07-22"
                }
            },
            "search": {
                "mode": "match"
            }
        },
        {
            "link": [
                {
                    "relation": "self",
                    "url": "https://appmarket.epic.com/interconnect-amcurprd-oauth/api/FHIR/R4/Encounter/e1SNSRyf34l21yfvZE7.sMA3"
                }
            ],
            "fullUrl": "https://appmarket.epic.com/interconnect-amcurprd-oauth/api/FHIR/R4/Encounter/e1SNSRyf34l21yfvZE7.sMA3",
            "resource": {
                "resourceType": "Encounter",
                "id": "e1SNSRyf34l21yfvZE7.sMA3",
                "identifier": [
                    {
                        "use": "usual",
                        "system": "urn:oid:1.2.840.114350.1.13.0.1.7.3.698084.8",
                        "value": "9568"
                    }
                ],
                "status": "unknown",
                "class": {
                    "system": "urn:oid:1.2.840.114350.1.72.1.7.7.10.696784.13260",
                    "code": "13",
                    "display": "Support OP Encounter"
                },
                "subject": {
                    "reference": "Patient/eiyTTBLEMcm6ZLYF5TkiTdA3",
                    "display": "Kidney, Kathryn A"
                },
                "period": {
                    "start": "2011-07-22",
                    "end": "2011-07-22"
                }
            },
            "search": {
                "mode": "match"
            }
        },
        {
            "link": [
                {
                    "relation": "self",
                    "url": "https://appmarket.epic.com/interconnect-amcurprd-oauth/api/FHIR/R4/Encounter/eLQooblg.qwC5S-sUHrh3SQ3"
                }
            ],
            "fullUrl": "https://appmarket.epic.com/interconnect-amcurprd-oauth/api/FHIR/R4/Encounter/eLQooblg.qwC5S-sUHrh3SQ3",
            "resource": {
                "resourceType": "Encounter",
                "id": "eLQooblg.qwC5S-sUHrh3SQ3",
                "identifier": [
                    {
                        "use": "usual",
                        "system": "urn:oid:1.2.840.114350.1.13.0.1.7.3.698084.8",
                        "value": "9569"
                    }
                ],
                "status": "unknown",
                "class": {
                    "system": "urn:oid:1.2.840.114350.1.72.1.7.7.10.696784.13260",
                    "code": "13",
                    "display": "Support OP Encounter"
                },
                "subject": {
                    "reference": "Patient/eiyTTBLEMcm6ZLYF5TkiTdA3",
                    "display": "Kidney, Kathryn A"
                },
                "period": {
                    "start": "2011-06-23",
                    "end": "2011-06-23"
                }
            },
            "search": {
                "mode": "match"
            }
        },
        {
            "link": [
                {
                    "relation": "self",
                    "url": "https://appmarket.epic.com/interconnect-amcurprd-oauth/api/FHIR/R4/Encounter/eg49VrYnK1hWfIcCLd6v5rg3"
                }
            ],
            "fullUrl": "https://appmarket.epic.com/interconnect-amcurprd-oauth/api/FHIR/R4/Encounter/eg49VrYnK1hWfIcCLd6v5rg3",
            "resource": {
                "resourceType": "Encounter",
                "id": "eg49VrYnK1hWfIcCLd6v5rg3",
                "identifier": [
                    {
                        "use": "usual",
                        "system": "urn:oid:1.2.840.114350.1.13.0.1.7.3.698084.8",
                        "value": "9570"
                    }
                ],
                "status": "unknown",
                "class": {
                    "system": "urn:oid:1.2.840.114350.1.72.1.7.7.10.696784.13260",
                    "code": "13",
                    "display": "Support OP Encounter"
                },
                "subject": {
                    "reference": "Patient/eiyTTBLEMcm6ZLYF5TkiTdA3",
                    "display": "Kidney, Kathryn A"
                },
                "period": {
                    "start": "2010-12-29",
                    "end": "2010-12-29"
                }
            },
            "search": {
                "mode": "match"
            }
        },
        {
            "link": [
                {
                    "relation": "self",
                    "url": "https://appmarket.epic.com/interconnect-amcurprd-oauth/api/FHIR/R4/Encounter/e1gpvm.nwBflH2s.JH70a2g3"
                }
            ],
            "fullUrl": "https://appmarket.epic.com/interconnect-amcurprd-oauth/api/FHIR/R4/Encounter/e1gpvm.nwBflH2s.JH70a2g3",
            "resource": {
                "resourceType": "Encounter",
                "id": "e1gpvm.nwBflH2s.JH70a2g3",
                "identifier": [
                    {
                        "use": "usual",
                        "system": "urn:oid:1.2.840.114350.1.13.0.1.7.3.698084.8",
                        "value": "9571"
                    }
                ],
                "status": "unknown",
                "class": {
                    "system": "urn:oid:1.2.840.114350.1.72.1.7.7.10.696784.13260",
                    "code": "13",
                    "display": "Support OP Encounter"
                },
                "subject": {
                    "reference": "Patient/eiyTTBLEMcm6ZLYF5TkiTdA3",
                    "display": "Kidney, Kathryn A"
                },
                "period": {
                    "start": "2010-12-29",
                    "end": "2010-12-29"
                }
            },
            "search": {
                "mode": "match"
            }
        },
        {
            "link": [
                {
                    "relation": "self",
                    "url": "https://appmarket.epic.com/interconnect-amcurprd-oauth/api/FHIR/R4/Encounter/eXRxOJvPWtVMr.d5-fbLDQQ3"
                }
            ],
            "fullUrl": "https://appmarket.epic.com/interconnect-amcurprd-oauth/api/FHIR/R4/Encounter/eXRxOJvPWtVMr.d5-fbLDQQ3",
            "resource": {
                "resourceType": "Encounter",
                "id": "eXRxOJvPWtVMr.d5-fbLDQQ3",
                "identifier": [
                    {
                        "use": "usual",
                        "system": "urn:oid:1.2.840.114350.1.13.0.1.7.3.698084.8",
                        "value": "9572"
                    }
                ],
                "status": "unknown",
                "class": {
                    "system": "urn:oid:1.2.840.114350.1.72.1.7.7.10.696784.13260",
                    "code": "13",
                    "display": "Support OP Encounter"
                },
                "subject": {
                    "reference": "Patient/eiyTTBLEMcm6ZLYF5TkiTdA3",
                    "display": "Kidney, Kathryn A"
                },
                "period": {
                    "start": "2010-12-29",
                    "end": "2010-12-29"
                }
            },
            "search": {
                "mode": "match"
            }
        },
        {
            "link": [
                {
                    "relation": "self",
                    "url": "https://appmarket.epic.com/interconnect-amcurprd-oauth/api/FHIR/R4/Encounter/etx-MSQigixMT1IbV30yPUA3"
                }
            ],
            "fullUrl": "https://appmarket.epic.com/interconnect-amcurprd-oauth/api/FHIR/R4/Encounter/etx-MSQigixMT1IbV30yPUA3",
            "resource": {
                "resourceType": "Encounter",
                "id": "etx-MSQigixMT1IbV30yPUA3",
                "identifier": [
                    {
                        "use": "usual",
                        "system": "urn:oid:1.2.840.114350.1.13.0.1.7.3.698084.8",
                        "value": "9573"
                    }
                ],
                "status": "unknown",
                "class": {
                    "system": "urn:oid:1.2.840.114350.1.72.1.7.7.10.696784.13260",
                    "code": "13",
                    "display": "Support OP Encounter"
                },
                "subject": {
                    "reference": "Patient/eiyTTBLEMcm6ZLYF5TkiTdA3",
                    "display": "Kidney, Kathryn A"
                },
                "period": {
                    "start": "2010-12-29",
                    "end": "2010-12-29"
                }
            },
            "search": {
                "mode": "match"
            }
        },
        {
            "link": [
                {
                    "relation": "self",
                    "url": "https://appmarket.epic.com/interconnect-amcurprd-oauth/api/FHIR/R4/Encounter/evONWiUKSmDqHZY.ikNBZSg3"
                }
            ],
            "fullUrl": "https://appmarket.epic.com/interconnect-amcurprd-oauth/api/FHIR/R4/Encounter/evONWiUKSmDqHZY.ikNBZSg3",
            "resource": {
                "resourceType": "Encounter",
                "id": "evONWiUKSmDqHZY.ikNBZSg3",
                "identifier": [
                    {
                        "use": "usual",
                        "system": "urn:oid:1.2.840.114350.1.13.0.1.7.3.698084.8",
                        "value": "22906"
                    }
                ],
                "status": "finished",
                "class": {
                    "system": "urn:oid:1.2.840.114350.1.72.1.7.7.10.696784.13260",
                    "code": "13",
                    "display": "Support OP Encounter"
                },
                "type": [
                    {
                        "coding": [
                            {
                                "system": "urn:oid:1.2.840.114350.1.13.0.1.7.10.698084.30",
                                "code": "150",
                                "display": "Abstract"
                            }
                        ],
                        "text": "Abstract"
                    }
                ],
                "subject": {
                    "reference": "Patient/eiyTTBLEMcm6ZLYF5TkiTdA3",
                    "display": "Kidney, Kathryn A"
                },
                "episodeOfCare": [
                    {
                        "reference": "EpisodeOfCare/eJpREQERJei58-2Ors.mdpg3",
                        "type": "EpisodeOfCare",
                        "display": "Kidney Transplant \u2013 4/12/2006  (#1)"
                    }
                ],
                "period": {
                    "start": "2004-07-15",
                    "end": "2004-07-15"
                },
                "location": [
                    {
                        "location": {
                            "reference": "Location/e.zUbzUZH9WErlJkdM0-hMZY7Z6JkVK.ftghaWm0ZCLs3",
                            "display": "EMH Abdominal Transplant"
                        }
                    }
                ]
            },
            "search": {
                "mode": "match"
            }
        },
        {
            "link": [
                {
                    "relation": "self",
                    "url": "https://appmarket.epic.com/interconnect-amcurprd-oauth/api/FHIR/R4/Encounter/eRZngmXgkvdPb13F5Xs6dzQ3"
                }
            ],
            "fullUrl": "https://appmarket.epic.com/interconnect-amcurprd-oauth/api/FHIR/R4/Encounter/eRZngmXgkvdPb13F5Xs6dzQ3",
            "resource": {
                "resourceType": "Encounter",
                "id": "eRZngmXgkvdPb13F5Xs6dzQ3",
                "identifier": [
                    {
                        "use": "usual",
                        "system": "urn:oid:1.2.840.114350.1.13.0.1.7.3.698084.8",
                        "value": "22894"
                    }
                ],
                "status": "in-progress",
                "class": {
                    "system": "urn:oid:1.2.840.114350.1.72.1.7.7.10.696784.13260",
                    "code": "13",
                    "display": "Support OP Encounter"
                },
                "type": [
                    {
                        "coding": [
                            {
                                "system": "urn:oid:1.2.840.114350.1.13.0.1.7.10.698084.30",
                                "code": "150",
                                "display": "Abstract"
                            }
                        ],
                        "text": "Abstract"
                    }
                ],
                "subject": {
                    "reference": "Patient/eiyTTBLEMcm6ZLYF5TkiTdA3",
                    "display": "Kidney, Kathryn A"
                },
                "episodeOfCare": [
                    {
                        "reference": "EpisodeOfCare/eJpREQERJei58-2Ors.mdpg3",
                        "type": "EpisodeOfCare",
                        "display": "Kidney Transplant \u2013 4/12/2006  (#1)"
                    }
                ],
                "period": {
                    "start": "2004-06-15",
                    "end": "2004-06-15"
                },
                "location": [
                    {
                        "location": {
                            "reference": "Location/e.zUbzUZH9WErlJkdM0-hMZY7Z6JkVK.ftghaWm0ZCLs3",
                            "display": "EMH Abdominal Transplant"
                        }
                    }
                ]
            },
            "search": {
                "mode": "match"
            }
        },
        {
            "link": [
                {
                    "relation": "self",
                    "url": "https://appmarket.epic.com/interconnect-amcurprd-oauth/api/FHIR/R4/EpisodeOfCare/eJpREQERJei58-2Ors.mdpg3"
                }
            ],
            "fullUrl": "https://appmarket.epic.com/interconnect-amcurprd-oauth/api/FHIR/R4/EpisodeOfCare/eJpREQERJei58-2Ors.mdpg3",
            "resource": {
                "resourceType": "EpisodeOfCare",
                "id": "eJpREQERJei58-2Ors.mdpg3",
                "extension": [
                    {
                        "valueString": "Kidney Transplant \u2013 4/12/2006  (#1)",
                        "url": "http://open.epic.com/FHIR/StructureDefinition/extension/episode-name"
                    },
                    {
                        "valueCodeableConcept": {
                            "coding": [
                                {
                                    "system": "urn:oid:1.2.840.114350.1.72.1.7.7.10.728366.30035",
                                    "code": "2",
                                    "display": "Recipient"
                                }
                            ],
                            "text": "Recipient"
                        },
                        "url": "http://open.epic.com/FHIR/StructureDefinition/extension/transplant-donor-or-recipient"
                    },
                    {
                        "extension": [
                            {
                                "valueCodeableConcept": {
                                    "coding": [
                                        {
                                            "system": "urn:oid:1.2.840.114350.1.72.1.7.7.10.728366.30030",
                                            "code": "16",
                                            "display": "Kidney"
                                        }
                                    ],
                                    "text": "Kidney"
                                },
                                "url": "organ-class"
                            },
                            {
                                "valueReference": {
                                    "reference": "Practitioner/e4fBRdwCD6bWDI76z9Bn9WA3",
                                    "type": "Practitioner",
                                    "display": "Coordinator Phoenix, RN"
                                },
                                "url": "coordinator"
                            }
                        ],
                        "url": "http://open.epic.com/FHIR/StructureDefinition/extension/transplant-organ-coordinator"
                    },
                    {
                        "extension": [
                            {
                                "valueCodeableConcept": {
                                    "coding": [
                                        {
                                            "system": "urn:oid:1.2.840.114350.1.72.1.7.7.10.728366.30105",
                                            "code": "50",
                                            "display": "Transplanted"
                                        }
                                    ],
                                    "text": "Transplanted"
                                },
                                "url": "phase"
                            },
                            {
                                "valueString": "Active Follow-up",
                                "url": "status"
                            },
                            {
                                "valueDate": "2013-04-12",
                                "url": "effective"
                            }
                        ],
                        "url": "http://open.epic.com/FHIR/StructureDefinition/extension/transplant-phase-status"
                    },
                    {
                        "valueDate": "2006-04-12",
                        "url": "http://open.epic.com/FHIR/StructureDefinition/extension/transplant-event-transplanted-date"
                    },
                    {
                        "valueString": "University of Wisconsin Hospital and Clinics (Madison, WI)",
                        "url": "http://open.epic.com/FHIR/StructureDefinition/extension/transplant-center"
                    },
                    {
                        "valueReference": {
                            "reference": "BodyStructure/e.1HgzQsnl.1ik61gp0HBaGIARvgSwYObTYJAAHRe-h3uwY6gc3GtHAjbhQPmlH7A3",
                            "type": "BodyStructure",
                            "display": "Right Kidney"
                        },
                        "url": "http://open.epic.com/FHIR/StructureDefinition/extension/transplant-organ"
                    }
                ],
                "status": "active",
                "type": [
                    {
                        "coding": [
                            {
                                "system": "urn:oid:1.2.840.114350.1.13.0.1.7.2.726668",
                                "code": "49",
                                "display": "Transplant"
                            },
                            {
                                "system": "urn:oid:1.2.840.114350.1.13.0.1.7.4.726668.130",
                                "code": "4",
                                "display": "Transplant"
                            }
                        ],
                        "text": "Transplant"
                    }
                ],
                "diagnosis": [
                    {
                        "condition": {
                            "reference": "Condition/e1cafjy-H1vG1ZsNbJq4yZA3",
                            "type": "Condition",
                            "display": "Kidney Transplant Rejection Grade 1"
                        }
                    },
                    {
                        "condition": {
                            "reference": "Condition/elwM8wYiKW4oiy5yyXmUxKw3",
                            "type": "Condition",
                            "display": "Kidney Transplant Rejection Grade 1"
                        }
                    },
                    {
                        "condition": {
                            "reference": "Condition/e7DPsJNKEYL4GFtspnVi-hw3",
                            "type": "Condition",
                            "display": "Kidney Transplant Rejection- recurrance orginal disease"
                        }
                    },
                    {
                        "condition": {
                            "reference": "Condition/eRAx8ue9PKPjanuLmZJ7qZw3",
                            "type": "Condition",
                            "display": "End-stage renal disease (CMS/HCC)"
                        }
                    },
                    {
                        "condition": {
                            "reference": "Condition/ehTwTXeDVXVCmbJnYHdscBA3",
                            "type": "Condition",
                            "display": "Mitral insufficiency (Resolved)"
                        }
                    },
                    {
                        "condition": {
                            "reference": "Condition/ewFZDJlj1ZAhdjEYGbl-QKg3",
                            "type": "Condition",
                            "display": "Hypophosphatemia (Resolved)"
                        }
                    },
                    {
                        "condition": {
                            "reference": "Condition/emUEmt9EzmILiHY90ObblaA3",
                            "type": "Condition",
                            "display": "Lymphocele (Resolved)"
                        }
                    },
                    {
                        "condition": {
                            "reference": "Condition/eQ348C11K6iTbOotAW8n0LQ3",
                            "type": "Condition",
                            "display": "Ileus (CMS/HCC) (Resolved)"
                        }
                    },
                    {
                        "condition": {
                            "reference": "Condition/ert7fVy33FGfYRQIP4wzxtw3",
                            "type": "Condition",
                            "display": "Lymphocele (Resolved)"
                        }
                    }
                ],
                "patient": {
                    "reference": "Patient/eiyTTBLEMcm6ZLYF5TkiTdA3",
                    "type": "Patient",
                    "display": "Kidney, Kathryn A"
                },
                "period": {
                    "start": "2013-04-12"
                },
                "team": [
                    {
                        "reference": "CareTeam/e.-CPiJOCoMy7w9R4181fHQav760tx3k3HcVCfvNFZT03",
                        "type": "CareTeam"
                    }
                ]
            },
            "search": {
                "mode": "include"
            }
        },
        {
            "link": [
                {
                    "relation": "self",
                    "url": "https://appmarket.epic.com/interconnect-amcurprd-oauth/api/FHIR/R4/Patient/eiyTTBLEMcm6ZLYF5TkiTdA3"
                }
            ],
            "fullUrl": "https://appmarket.epic.com/interconnect-amcurprd-oauth/api/FHIR/R4/Patient/eiyTTBLEMcm6ZLYF5TkiTdA3",
            "resource": {
                "resourceType": "Patient",
                "id": "eiyTTBLEMcm6ZLYF5TkiTdA3",
                "extension": [
                    {
                        "extension": [
                            {
                                "valueCoding": {
                                    "system": "urn:oid:2.16.840.1.113883.6.238",
                                    "code": "2106-3",
                                    "display": "White"
                                },
                                "url": "ombCategory"
                            },
                            {
                                "valueString": "White",
                                "url": "text"
                            }
                        ],
                        "url": "http://hl7.org/fhir/us/core/StructureDefinition/us-core-race"
                    },
                    {
                        "extension": [
                            {
                                "valueCoding": {
                                    "system": "urn:oid:2.16.840.1.113883.6.238",
                                    "code": "2186-5",
                                    "display": "Not Hispanic or Latino"
                                },
                                "url": "ombCategory"
                            },
                            {
                                "valueString": "Not Hispanic or Latino",
                                "url": "text"
                            }
                        ],
                        "url": "http://hl7.org/fhir/us/core/StructureDefinition/us-core-ethnicity"
                    },
                    {
                        "valueCodeableConcept": {
                            "coding": [
                                {
                                    "system": "urn:oid:1.2.840.114350.1.13.0.1.7.10.698084.130.657370.19999000",
                                    "code": "female",
                                    "display": "female"
                                }
                            ]
                        },
                        "url": "http://open.epic.com/FHIR/StructureDefinition/extension/legal-sex"
                    },
                    {
                        "valueCodeableConcept": {
                            "coding": [
                                {
                                    "system": "urn:oid:1.2.840.114350.1.13.0.1.7.10.698084.130.657370.19999000",
                                    "code": "female",
                                    "display": "female"
                                }
                            ]
                        },
                        "url": "http://open.epic.com/FHIR/StructureDefinition/extension/sex-for-clinical-use"
                    },
                    {
                        "valueCode": "F",
                        "url": "http://hl7.org/fhir/us/core/StructureDefinition/us-core-birthsex"
                    }
                ],
                "identifier": [
                    {
                        "use": "usual",
                        "system": "urn:oid:2.16.840.1.113883.4.1",
                        "value": "677-52-3386"
                    },
                    {
                        "use": "usual",
                        "type": {
                            "text": "CEID"
                        },
                        "system": "urn:epic:apporchard.curprod",
                        "value": "AO1PP2Q9FGT28F7"
                    },
                    {
                        "use": "usual",
                        "type": {
                            "text": "EPIC"
                        },
                        "system": "urn:oid:1.2.840.114350.1.1",
                        "value": "E3117"
                    },
                    {
                        "use": "usual",
                        "type": {
                            "text": "EXTERNAL"
                        },
                        "system": "urn:oid:1.2.840.114350.1.13.0.1.7.2.698084",
                        "value": "Z5037"
                    },
                    {
                        "use": "usual",
                        "type": {
                            "text": "FHIR"
                        },
                        "system": "http://open.epic.com/FHIR/StructureDefinition/patient-dstu2-fhir-id",
                        "value": "Twblw7YxkkqwTPuKIrhA3XYVAAWGI0fGuexJbikj95-UB"
                    },
                    {
                        "use": "usual",
                        "type": {
                            "text": "FHIR STU3"
                        },
                        "system": "http://open.epic.com/FHIR/StructureDefinition/patient-fhir-id",
                        "value": "eiyTTBLEMcm6ZLYF5TkiTdA3"
                    },
                    {
                        "use": "usual",
                        "type": {
                            "text": "INTERNAL"
                        },
                        "system": "urn:oid:1.2.840.114350.1.13.0.1.7.2.698084",
                        "value": "     Z5037"
                    },
                    {
                        "use": "usual",
                        "type": {
                            "text": "MRN"
                        },
                        "system": "urn:oid:1.2.840.114350.1.13.0.1.7.5.737384.14",
                        "value": "202867"
                    },
                    {
                        "use": "usual",
                        "system": "https://open.epic.com/FHIR/StructureDefinition/PayerMemberId",
                        "value": "987654321A"
                    }
                ],
                "active": true,
                "name": [
                    {
                        "use": "official",
                        "text": "Kathryn A Kidney",
                        "family": "Kidney",
                        "given": [
                            "Kathryn",
                            "A"
                        ]
                    },
                    {
                        "use": "usual",
                        "text": "Kathryn A Kidney",
                        "family": "Kidney",
                        "given": [
                            "Kathryn",
                            "A"
                        ]
                    }
                ],
                "gender": "female",
                "birthDate": "1966-04-12",
                "deceasedBoolean": false,
                "address": [
                    {
                        "use": "old",
                        "line": [
                            "123 Glen Oaks"
                        ],
                        "city": "Madison",
                        "state": "WI",
                        "postalCode": "53711",
                        "country": "US"
                    },
                    {
                        "use": "home",
                        "line": [
                            "123 Glen Oaks"
                        ],
                        "city": "Madison",
                        "state": "WI",
                        "postalCode": "53711",
                        "country": "US"
                    }
                ],
                "maritalStatus": {
                    "text": "Single"
                },
                "contact": [
                    {
                        "relationship": [
                            {
                                "coding": [
                                    {
                                        "system": "http://terminology.hl7.org/CodeSystem/v2-0131",
                                        "code": "E",
                                        "display": "Employer"
                                    }
                                ]
                            }
                        ],
                        "organization": {
                            "display": "Other"
                        }
                    }
                ],
                "communication": [
                    {
                        "language": {
                            "coding": [
                                {
                                    "system": "urn:ietf:bcp:47",
                                    "code": "en",
                                    "display": "English"
                                }
                            ],
                            "text": "English"
                        },
                        "preferred": true
                    }
                ],
                "managingOrganization": {
                    "reference": "Organization/enRyWnSP963FYDpoks4NHOA3",
                    "display": "Epic Hospital System"
                }
            },
            "search": {
                "mode": "include"
            }
        }
    ]
}