{
    "resourceType": "Bundle",
    "type": "searchset",
    "total": 4,
    "link": [
        {
            "relation": "self",
            "url": "https://appmarket.epic.com/interconnect-amcurprd-oauth/api/FHIR/R4/Encounter?_include=Encounter:condition&_include=Encounter:episodeOfCare&_include=Encounter:partOf&_include=Encounter:subject&_format=json&patient=eYgBfU.QGNE3Jy-cfr7hyrQ3"
        }
    ],
    "entry": [
        {
            "link": [
                {
                    "relation": "self",
                    "url": "https://appmarket.epic.com/interconnect-amcurprd-oauth/api/FHIR/R4/Encounter/esoirPTMmlGy7SIbyA4eUpQ3"
                }
            ],
            "fullUrl": "https://appmarket.epic.com/interconnect-amcurprd-oauth/api/FHIR/R4/Encounter/esoirPTMmlGy7SIbyA4eUpQ3",
            "resource": {
                "resourceType": "Encounter",
                "id": "esoirPTMmlGy7SIbyA4eUpQ3",
                "identifier": [
                    {
                        "use": "usual",
                        "system": "urn:oid:1.2.840.114350.1.13.0.1.7.3.698084.8",
                        "value": "6085"
                    }
                ],
                "status": "planned",
                "class": {
                    "system": "urn:oid:1.2.840.114350.1.72.1.7.7.10.696784.13260",
                    "code": "2",
                    "display": "Preadmission"
                },
                "type": [
                    {
                        "coding": [
                            {
                                "system": "urn:oid:1.2.840.114350.1.13.0.1.7.10.698084.10110",
                                "code": "102",
                                "display": "Outpatient"
                            }
                        ],
                        "text": "Outpatient"
                    },
                    {
                        "coding": [
                            {
                                "system": "urn:oid:1.2.840.114350.1.13.0.1.7.10.698084.30",
                                "code": "3",
                                "display": "Hospital Encounter"
                            }
                        ],
                        "text": "Hospital Encounter"
                    }
                ],
                "serviceType": {
                    "coding": [
                        {
                            "system": "urn:oid:1.2.840.114350.1.13.0.1.7.10.698084.18886",
                            "code": "124",
                            "display": "General Surgery"
                        }
                    ],
                    "text": "General Surgery"
                },
                "subject": {
                    "reference": "Patient/eYgBfU.QGNE3Jy-cfr7hyrQ3",
                    "display": "Ambulatory, Richard Gi"
                },
                "participant": [
                    {
                        "type": [
                            {
                                "coding": [
                                    {
                                        "system": "http://hl7.org/fhir/v3/ParticipationType",
                                        "code": "ADM",
                                        "display": "admitter"
                                    }
                                ],
                                "text": "admitter"
                            }
                        ],
                        "individual": {
                            "reference": "Practitioner/eWIbfgMpwsHwUkoWBcw7uAA3",
                            "type": "Practitioner",
                            "display": "Physician Gastroenterology, MD"
                        }
                    },
                    {
                        "type": [
                            {
                                "coding": [
                                    {
                                        "system": "http://hl7.org/fhir/v3/ParticipationType",
                                        "code": "ATND",
                                        "display": "attender"
                                    }
                                ],
                                "text": "attender"
                            }
                        ],
                        "individual": {
                            "reference": "Practitioner/eWIbfgMpwsHwUkoWBcw7uAA3",
                            "type": "Practitioner",
                            "display": "Physician Gastroenterology, MD"
                        }
                    },
                    {
                        "extension": [
                            {
                                "valueCodeableConcept": {
                                    "coding": [
                                        {
                                            "system": "urn:oid:1.2.840.114350.1.13.0.1.7.4.698084.18832",
                                            "code": "10",
                                            "display": "Gastroenterology"
                                        }
                                    ],
                                    "text": "Gastroenterology"
                                },
                                "url": "http://open.epic.com/FHIR/StructureDefinition/extension/specialty"
                            }
                        ],
                        "type": [
                            {
                                "coding": [
                                    {
                                        "system": "urn:oid:1.2.840.114350.1.13.0.1.7.10.698084.18869",
                                        "code": "Surgeon",
                                        "display": "Surgeon"
                                    }
                                ],
                                "text": "Surgeon"
                            }
                        ],
                        "period": {
                            "start": "2014-06-20T16:23:30Z"
                        },
                        "individual": {
                            "reference": "Practitioner/eWIbfgMpwsHwUkoWBcw7uAA3",
                            "type": "Practitioner",
                            "display": "Physician Gastroenterology, MD"
                        }
                    }
                ],
                "period": {
                    "start": "2014-05-31"
                },
                "location": [
                    {
                        "location": {
                            "reference": "Location/ew6bRiiIcKbo9d2tQ4dyffWV6gsk8iSoKgmSUmFU7tc83",
                            "display": "EMH GI Services"
                        }
                    },
                    {
                        "location": {
                            "reference": "Location/ew6bRiiIcKbo9d2tQ4dyffWV6gsk8iSoKgmSUmFU7tc83",
                            "display": "EMH GI Services"
                        }
                    },
                    {
                        "location": {
                            "reference": "Location/eQSOrLdbVrMRc68KBcTBG4A3",
                            "display": "Epic Hospital System"
                        }
                    }
                ]
            },
            "search": {
                "mode": "match"
            }
        },
        {
            "link": [
                {
                    "relation": "self",
                    "url": "https://appmarket.epic.com/interconnect-amcurprd-oauth/api/FHIR/R4/Encounter/eteZkVbAOuM8WXR0-45khiA3"
                }
            ],
            "fullUrl": "https://appmarket.epic.com/interconnect-amcurprd-oauth/api/FHIR/R4/Encounter/eteZkVbAOuM8WXR0-45khiA3",
            "resource": {
                "resourceType": "Encounter",
                "id": "eteZkVbAOuM8WXR0-45khiA3",
                "identifier": [
                    {
                        "use": "usual",
                        "system": "urn:oid:1.2.840.114350.1.13.0.1.7.3.698084.8",
                        "value": "6086"
                    }
                ],
                "status": "unknown",
                "class": {
                    "system": "urn:oid:1.2.840.114350.1.72.1.7.7.10.696784.13260",
                    "code": "1",
                    "display": "Surgery Case"
                },
                "type": [
                    {
                        "coding": [
                            {
                                "system": "urn:oid:1.2.840.114350.1.13.0.1.7.10.698084.30",
                                "code": "51",
                                "display": "Surgery"
                            }
                        ],
                        "text": "Surgery"
                    }
                ],
                "subject": {
                    "reference": "Patient/eYgBfU.QGNE3Jy-cfr7hyrQ3",
                    "display": "Ambulatory, Richard Gi"
                },
                "period": {
                    "start": "2013-03-06",
                    "end": "2013-03-06"
                },
                "location": [
                    {
                        "location": {
                            "reference": "Location/eeU.1OzW8Iy3LgVDVxoW5QCICi8ZwZOcHV6kp9TmrQ883",
                            "display": "EMH Gastroenterology"
                        }
                    }
                ],
                "partOf": {
                    "reference": "Encounter/esoirPTMmlGy7SIbyA4eUpQ3",
                    "identifier": {
                        "use": "usual",
                        "system": "urn:oid:1.2.840.114350.1.13.0.1.7.3.698084.8",
                        "value": "6085"
                    },
                    "display": "Hospital Encounter"
                }
            },
            "search": {
                "mode": "match"
            }
        },
        {
            "link": [
                {
                    "relation": "self",
                    "url": "https://appmarket.epic.com/interconnect-amcurprd-oauth/api/FHIR/R4/Encounter/eRLDLt5bMTPfyeSo82DJYYw3"
                }
            ],
            "fullUrl": "https://appmarket.epic.com/interconnect-amcurprd-oauth/api/FHIR/R4/Encounter/eRLDLt5bMTPfyeSo82DJYYw3",
            "resource": {
                "resourceType": "Encounter",
                "id": "eRLDLt5bMTPfyeSo82DJYYw3",
                "identifier": [
                    {
                        "use": "usual",
                        "system": "urn:oid:1.2.840.114350.1.13.0.1.7.3.698084.8",
                        "value": "6089"
                    }
                ],
                "status": "unknown",
                "class": {
                    "system": "urn:oid:1.2.840.114350.1.72.1.7.7.10.696784.13260",
                    "code": "10",
                    "display": "Surgery Log"
                },
                "type": [
                    {
                        "coding": [
                            {
                                "system": "urn:oid:1.2.840.114350.1.13.0.1.7.10.698084.30",
                                "code": "51",
                                "display": "Surgery"
                            }
                        ],
                        "text": "Surgery"
                    }
                ],
                "subject": {
                    "reference": "Patient/eYgBfU.QGNE3Jy-cfr7hyrQ3",
                    "display": "Ambulatory, Richard Gi"
                },
                "period": {
                    "start": "2013-03-03T15:50:00Z",
                    "end": "2013-03-03T17:20:00Z"
                },
                "location": [
                    {
                        "location": {
                            "reference": "Location/eeU.1OzW8Iy3LgVDVxoW5QCICi8ZwZOcHV6kp9TmrQ883",
                            "display": "EMH Gastroenterology"
                        }
                    }
                ],
                "partOf": {
                    "reference": "Encounter/eu0k-WuiOeSABhhOMQ2uDig3",
                    "identifier": {
                        "use": "usual",
                        "system": "urn:oid:1.2.840.114350.1.13.0.1.7.3.698084.8",
                        "value": "6091"
                    },
                    "display": "Hospital Encounter"
                }
            },
            "search": {
                "mode": "match"
            }
        },
        {
            "link": [
                {
                    "relation": "self",
                    "url": "https://appmarket.epic.com/interconnect-amcurprd-oauth/api/FHIR/R4/Encounter/eu0k-WuiOeSABhhOMQ2uDig3"
                }
            ],
            "fullUrl": "https://appmarket.epic.com/interconnect-amcurprd-oauth/api/FHIR/R4/Encounter/eu0k-WuiOeSABhhOMQ2uDig3",
            "resource": {
                "resourceType": "Encounter",
                "id": "eu0k-WuiOeSABhhOMQ2uDig3",
                "identifier": [
                    {
                        "use": "usual",
                        "system": "urn:oid:1.2.840.114350.1.13.0.1.7.3.698084.8",
                        "value": "6091"
                    }
                ],
                "status": "planned",
                "class": {
                    "system": "urn:oid:1.2.840.114350.1.72.1.7.7.10.696784.13260",
                    "code": "2",
                    "display": "Preadmission"
                },
                "type": [
                    {
                        "coding": [
                            {
                                "system": "urn:oid:1.2.840.114350.1.13.0.1.7.10.698084.10110",
                                "code": "102",
                                "display": "Outpatient"
                            }
                        ],
                        "text": "Outpatient"
                    },
                    {
                        "coding": [
                            {
                                "system": "urn:oid:1.2.840.114350.1.13.0.1.7.10.698084.30",
                                "code": "3",
                                "display": "Hospital Encounter"
                            }
                        ],
                        "text": "Hospital Encounter"
                    }
                ],
                "serviceType": {
                    "coding": [
                        {
                            "system": "urn:oid:1.2.840.114350.1.13.0.1.7.10.698084.18886",
                            "code": "124",
                            "display": "General Surgery"
                        }
                    ],
                    "text": "General Surgery"
                },
                "subject": {
                    "reference": "Patient/eYgBfU.QGNE3Jy-cfr7hyrQ3",
                    "display": "Ambulatory, Richard Gi"
                },
                "participant": [
                    {
                        "type": [
                            {
                                "coding": [
                                    {
                                        "system": "http://hl7.org/fhir/v3/ParticipationType",
                                        "code": "ADM",
                                        "display": "admitter"
                                    }
                                ],
                                "text": "admitter"
                            }
                        ],
                        "individual": {
                            "reference": "Practitioner/eWIbfgMpwsHwUkoWBcw7uAA3",
                            "type": "Practitioner",
                            "display": "Physician Gastroenterology, MD"
                        }
                    },
                    {
                        "type": [
                            {
                                "coding": [
                                    {
                                        "system": "http://hl7.org/fhir/v3/ParticipationType",
                                        "code": "ATND",
                                        "display": "attender"
                                    }
                                ],
                                "text": "attender"
                            }
                        ],
                        "individual": {
                            "reference": "Practitioner/eWIbfgMpwsHwUkoWBcw7uAA3",
                            "type": "Practitioner",
                            "display": "Physician Gastroenterology, MD"
                        }
                    }
                ],
                "period": {
                    "start": "2013-03-03T15:50:00Z",
                    "end": "2173-09-27T15:50:00Z"
                },
                "location": [
                    {
                        "location": {
                            "reference": "Location/ew6bRiiIcKbo9d2tQ4dyffWV6gsk8iSoKgmSUmFU7tc83",
                            "display": "EMH GI Services"
                        }
                    },
                    {
                        "location": {
                            "reference": "Location/ew6bRiiIcKbo9d2tQ4dyffWV6gsk8iSoKgmSUmFU7tc83",
                            "display": "EMH GI Services"
                        }
                    },
                    {
                        "location": {
                            "reference": "Location/eQSOrLdbVrMRc68KBcTBG4A3",
                            "display": "Epic Hospital System"
                        }
                    }
                ]
            },
            "search": {
                "mode": "match"
            }
        },
        {
            "link": [
                {
                    "relation": "self",
                    "url": "https://appmarket.epic.com/interconnect-amcurprd-oauth/api/FHIR/R4/Patient/eYgBfU.QGNE3Jy-cfr7hyrQ3"
                }
            ],
            "fullUrl": "https://appmarket.epic.com/interconnect-amcurprd-oauth/api/FHIR/R4/Patient/eYgBfU.QGNE3Jy-cfr7hyrQ3",
            "resource": {
                "resourceType": "Patient",
                "id": "eYgBfU.QGNE3Jy-cfr7hyrQ3",
                "extension": [
                    {
                        "extension": [
                            {
                                "valueCoding": {
                                    "system": "http://terminology.hl7.org/CodeSystem/v3-NullFlavor",
                                    "code": "UNK",
                                    "display": "Unknown"
                                },
                                "url": "ombCategory"
                            },
                            {
                                "valueString": "Unknown",
                                "url": "text"
                            }
                        ],
                        "url": "http://hl7.org/fhir/us/core/StructureDefinition/us-core-race"
                    },
                    {
                        "extension": [
                            {
                                "valueString": "Unknown",
                                "url": "text"
                            }
                        ],
                        "url": "http://hl7.org/fhir/us/core/StructureDefinition/us-core-ethnicity"
                    },
                    {
                        "valueCodeableConcept": {
                            "coding": [
                                {
                                    "system": "urn:oid:1.2.840.114350.1.13.0.1.7.10.698084.130.657370.19999000",
                                    "code": "male",
                                    "display": "male"
                                }
                            ]
                        },
                        "url": "http://open.epic.com/FHIR/StructureDefinition/extension/legal-sex"
                    },
                    {
                        "valueCodeableConcept": {
                            "coding": [
                                {
                                    "system": "urn:oid:1.2.840.114350.1.13.0.1.7.10.698084.130.657370.19999000",
                                    "code": "male",
                                    "display": "male"
                                }
                            ]
                        },
                        "url": "http://open.epic.com/FHIR/StructureDefinition/extension/sex-for-clinical-use"
                    },
                    {
                        "valueCode": "M",
                        "url": "http://hl7.org/fhir/us/core/StructureDefinition/us-core-birthsex"
                    }
                ],
                "identifier": [
                    {
                        "use": "usual",
                        "system": "urn:oid:2.16.840.1.113883.4.1",
                        "value": "146-15-6045"
                    },
                    {
                        "use": "usual",
                        "type": {
                            "text": "CEID"
                        },
                        "system": "urn:epic:apporchard.curprod",
                        "value": "AO16G7V84BZC482"
                    },
                    {
                        "use": "usual",
                        "type": {
                            "text": "EPIC"
                        },
                        "system": "urn:oid:1.2.840.114350.1.1",
                        "value": "E3312"
                    },
                    {
                        "use": "usual",
                        "type": {
                            "text": "EXTERNAL"
                        },
                        "system": "urn:oid:1.2.840.114350.1.13.0.1.7.2.698084",
                        "value": "Z4935"
                    },
                    {
                        "use": "usual",
                        "type": {
                            "text": "FHIR"
                        },
                        "system": "http://open.epic.com/FHIR/StructureDefinition/patient-dstu2-fhir-id",
                        "value": "TW5b3Ra4hr3ep7dP1yxavUXPGEAtL4zlx6eEH8uHvX5EB"
                    },
                    {
                        "use": "usual",
                        "type": {
                            "text": "FHIR STU3"
                        },
                        "system": "http://open.epic.com/FHIR/StructureDefinition/patient-fhir-id",
                        "value": "eYgBfU.QGNE3Jy-cfr7hyrQ3"
                    },
                    {
                        "use": "usual",
                        "type": {
                            "text": "INTERNAL"
                        },
                        "system": "urn:oid:1.2.840.114350.1.13.0.1.7.2.698084",
                        "value": "     Z4935"
                    },
                    {
                        "use": "usual",
                        "type": {
                            "text": "MRN"
                        },
                        "system": "urn:oid:1.2.840.114350.1.13.0.1.7.5.737384.14",
                        "value": "203062"
                    },
                    {
                        "use": "usual",
                        "type": {
                            "text": "MYCHARTLOGIN"
                        },
                        "system": "urn:oid:1.2.840.114350.1.13.0.1.7.3.878082.110",
                        "value": "AMBRICHARD"
                    },
                    {
                        "use": "usual",
                        "type": {
                            "text": "WPRINTERNAL"
                        },
                        "system": "urn:oid:1.2.840.114350.1.13.0.1.7.2.878082",
                        "value": "37"
                    }
                ],
                "active": true,
                "name": [
                    {
                        "use": "official",
                        "text": "Richard Gi Ambulatory",
                        "family": "Ambulatory",
                        "given": [
                            "Richard",
                            "Gi"
                        ]
                    },
                    {
                        "use": "usual",
                        "text": "Richard Gi Ambulatory",
                        "family": "Ambulatory",
                        "given": [
                            "Richard",
                            "Gi"
                        ]
                    }
                ],
                "gender": "male",
                "birthDate": "1981-02-26",
                "deceasedBoolean": false,
                "managingOrganization": {
                    "reference": "Organization/enRyWnSP963FYDpoks4NHOA3",
                    "display": "Epic Hospital System"
                }
            },
            "search": {
                "mode": "include"
            }
        },
        {
            "link": [
                {
                    "relation": "self",
                    "url": "https://appmarket.epic.com/interconnect-amcurprd-oauth/api/FHIR/R4/Encounter/esoirPTMmlGy7SIbyA4eUpQ3"
                }
            ],
            "fullUrl": "https://appmarket.epic.com/interconnect-amcurprd-oauth/api/FHIR/R4/Encounter/esoirPTMmlGy7SIbyA4eUpQ3",
            "resource": {
                "resourceType": "Encounter",
                "id": "esoirPTMmlGy7SIbyA4eUpQ3",
                "identifier": [
                    {
                        "use": "usual",
                        "system": "urn:oid:1.2.840.114350.1.13.0.1.7.3.698084.8",
                        "value": "6085"
                    }
                ],
                "status": "planned",
                "class": {
                    "system": "urn:oid:1.2.840.114350.1.72.1.7.7.10.696784.13260",
                    "code": "2",
                    "display": "Preadmission"
                },
                "type": [
                    {
                        "coding": [
                            {
                                "system": "urn:oid:1.2.840.114350.1.13.0.1.7.10.698084.10110",
                                "code": "102",
                                "display": "Outpatient"
                            }
                        ],
                        "text": "Outpatient"
                    },
                    {
                        "coding": [
                            {
                                "system": "urn:oid:1.2.840.114350.1.13.0.1.7.10.698084.30",
                                "code": "3",
                                "display": "Hospital Encounter"
                            }
                        ],
                        "text": "Hospital Encounter"
                    }
                ],
                "serviceType": {
                    "coding": [
                        {
                            "system": "urn:oid:1.2.840.114350.1.13.0.1.7.10.698084.18886",
                            "code": "124",
                            "display": "General Surgery"
                        }
                    ],
                    "text": "General Surgery"
                },
                "subject": {
                    "reference": "Patient/eYgBfU.QGNE3Jy-cfr7hyrQ3",
                    "display": "Ambulatory, Richard Gi"
                },
                "participant": [
                    {
                        "type": [
                            {
                                "coding": [
                                    {
                                        "system": "http://hl7.org/fhir/v3/ParticipationType",
                                        "code": "ADM",
                                        "display": "admitter"
                                    }
                                ],
                                "text": "admitter"
                            }
                        ],
                        "individual": {
                            "reference": "Practitioner/eWIbfgMpwsHwUkoWBcw7uAA3",
                            "type": "Practitioner",
                            "display": "Physician Gastroenterology, MD"
                        }
                    },
                    {
                        "type": [
                            {
                                "coding": [
                                    {
                                        "system": "http://hl7.org/fhir/v3/ParticipationType",
                                        "code": "ATND",
                                        "display": "attender"
                                    }
                                ],
                                "text": "attender"
                            }
                        ],
                        "individual": {
                            "reference": "Practitioner/eWIbfgMpwsHwUkoWBcw7uAA3",
                            "type": "Practitioner",
                            "display": "Physician Gastroenterology, MD"
                        }
                    },
                    {
                        "extension": [
                            {
                                "valueCodeableConcept": {
                                    "coding": [
                                        {
                                            "system": "urn:oid:1.2.840.114350.1.13.0.1.7.4.698084.18832",
                                            "code": "10",
                                            "display": "Gastroenterology"
                                        }
                                    ],
                                    "text": "Gastroenterology"
                                },
                                "url": "http://open.epic.com/FHIR/StructureDefinition/extension/specialty"
                            }
                        ],
                        "type": [
                            {
                                "coding": [
                                    {
                                        "system": "urn:oid:1.2.840.114350.1.13.0.1.7.10.698084.18869",
                                        "code": "Surgeon",
                                        "display": "Surgeon"
                                    }
                                ],
                                "text": "Surgeon"
                            }
                        ],
                        "period": {
                            "start": "2014-06-20T16:23:30Z"
                        },
                        "individual": {
                            "reference": "Practitioner/eWIbfgMpwsHwUkoWBcw7uAA3",
                            "type": "Practitioner",
                            "display": "Physician Gastroenterology, MD"
                        }
                    }
                ],
                "period": {
                    "start": "2014-05-31"
                },
                "location": [
                    {
                        "location": {
                            "reference": "Location/ew6bRiiIcKbo9d2tQ4dyffWV6gsk8iSoKgmSUmFU7tc83",
                            "display": "EMH GI Services"
                        }
                    },
                    {
                        "location": {
                            "reference": "Location/ew6bRiiIcKbo9d2tQ4dyffWV6gsk8iSoKgmSUmFU7tc83",
                            "display": "EMH GI Services"
                        }
                    },
                    {
                        "location": {
                            "reference": "Location/eQSOrLdbVrMRc68KBcTBG4A3",
                            "display": "Epic Hospital System"
                        }
                    }
                ]
            },
            "search": {
                "mode": "include"
            }
        },
        {
            "link": [
                {
                    "relation": "self",
                    "url": "https://appmarket.epic.com/interconnect-amcurprd-oauth/api/FHIR/R4/Encounter/eu0k-WuiOeSABhhOMQ2uDig3"
                }
            ],
            "fullUrl": "https://appmarket.epic.com/interconnect-amcurprd-oauth/api/FHIR/R4/Encounter/eu0k-WuiOeSABhhOMQ2uDig3",
            "resource": {
                "resourceType": "Encounter",
                "id": "eu0k-WuiOeSABhhOMQ2uDig3",
                "identifier": [
                    {
                        "use": "usual",
                        "system": "urn:oid:1.2.840.114350.1.13.0.1.7.3.698084.8",
                        "value": "6091"
                    }
                ],
                "status": "planned",
                "class": {
                    "system": "urn:oid:1.2.840.114350.1.72.1.7.7.10.696784.13260",
                    "code": "2",
                    "display": "Preadmission"
                },
                "type": [
                    {
                        "coding": [
                            {
                                "system": "urn:oid:1.2.840.114350.1.13.0.1.7.10.698084.10110",
                                "code": "102",
                                "display": "Outpatient"
                            }
                        ],
                        "text": "Outpatient"
                    },
                    {
                        "coding": [
                            {
                                "system": "urn:oid:1.2.840.114350.1.13.0.1.7.10.698084.30",
                                "code": "3",
                                "display": "Hospital Encounter"
                            }
                        ],
                        "text": "Hospital Encounter"
                    }
                ],
                "serviceType": {
                    "coding": [
                        {
                            "system": "urn:oid:1.2.840.114350.1.13.0.1.7.10.698084.18886",
                            "code": "124",
                            "display": "General Surgery"
                        }
                    ],
                    "text": "General Surgery"
                },
                "subject": {
                    "reference": "Patient/eYgBfU.QGNE3Jy-cfr7hyrQ3",
                    "display": "Ambulatory, Richard Gi"
                },
                "participant": [
                    {
                        "type": [
                            {
                                "coding": [
                                    {
                                        "system": "http://hl7.org/fhir/v3/ParticipationType",
                                        "code": "ADM",
                                        "display": "admitter"
                                    }
                                ],
                                "text": "admitter"
                            }
                        ],
                        "individual": {
                            "reference": "Practitioner/eWIbfgMpwsHwUkoWBcw7uAA3",
                            "type": "Practitioner",
                            "display": "Physician Gastroenterology, MD"
                        }
                    },
                    {
                        "type": [
                            {
                                "coding": [
                                    {
                                        "system": "http://hl7.org/fhir/v3/ParticipationType",
                                        "code": "ATND",
                                        "display": "attender"
                                    }
                                ],
                                "text": "attender"
                            }
                        ],
                        "individual": {
                            "reference": "Practitioner/eWIbfgMpwsHwUkoWBcw7uAA3",
                            "type": "Practitioner",
                            "display": "Physician Gastroenterology, MD"
                        }
                    }
                ],
                "period": {
                    "start": "2013-03-03T15:50:00Z",
                    "end": "2173-09-27T15:50:00Z"
                },
                "location": [
                    {
                        "location": {
                            "reference": "Location/ew6bRiiIcKbo9d2tQ4dyffWV6gsk8iSoKgmSUmFU7tc83",
                            "display": "EMH GI Services"
                        }
                    },
                    {
                        "location": {
                            "reference": "Location/ew6bRiiIcKbo9d2tQ4dyffWV6gsk8iSoKgmSUmFU7tc83",
                            "display": "EMH GI Services"
                        }
                    },
                    {
                        "location": {
                            "reference": "Location/eQSOrLdbVrMRc68KBcTBG4A3",
                            "display": "Epic Hospital System"
                        }
                    }
                ]
            },
            "search": {
                "mode": "include"
            }
        }
    ]
}