{
    "resourceType": "Bundle",
    "type": "searchset",
    "total": 66,
    "link": [
        {
            "relation": "self",
            "url": "https://appmarket.epic.com/interconnect-amcurprd-oauth/api/FHIR/R4/Encounter?_include=Encounter:condition&_include=Encounter:episodeOfCare&_include=Encounter:partOf&_include=Encounter:subject&_format=json&patient=ePGJfjiWayus47VRmNLCBcA3"
        }
    ],
    "entry": [
        {
            "link": [
                {
                    "relation": "self",
                    "url": "https://appmarket.epic.com/interconnect-amcurprd-oauth/api/FHIR/R4/Encounter/e8rbMx8Db1tIVkCkvXbvKaA3"
                }
            ],
            "fullUrl": "https://appmarket.epic.com/interconnect-amcurprd-oauth/api/FHIR/R4/Encounter/e8rbMx8Db1tIVkCkvXbvKaA3",
            "resource": {
                "resourceType": "Encounter",
                "id": "e8rbMx8Db1tIVkCkvXbvKaA3",
                "identifier": [
                    {
                        "use": "usual",
                        "system": "urn:oid:1.2.840.114350.1.13.0.1.7.3.698084.8",
                        "value": "20169"
                    }
                ],
                "status": "finished",
                "class": {
                    "system": "urn:oid:1.2.840.114350.1.72.1.7.7.10.696784.13260",
                    "code": "13",
                    "display": "Support OP Encounter"
                },
                "type": [
                    {
                        "coding": [
                            {
                                "system": "urn:oid:1.2.840.114350.1.13.0.1.7.10.698084.30",
                                "code": "111",
                                "display": "Orders Only"
                            }
                        ],
                        "text": "Orders Only"
                    }
                ],
                "subject": {
                    "reference": "Patient/ePGJfjiWayus47VRmNLCBcA3",
                    "display": "Beacon, Alexandra"
                },
                "episodeOfCare": [
                    {
                        "reference": "EpisodeOfCare/eCylMfiIp8l.KiPILYUeC2w3",
                        "type": "EpisodeOfCare",
                        "display": "ONCOLOGY TREATMENT"
                    }
                ],
                "participant": [
                    {
                        "individual": {
                            "reference": "Practitioner/eM5CWtq15N0WJeuCet5bJlQ3",
                            "type": "Practitioner",
                            "display": "Physician Family Medicine, MD"
                        }
                    }
                ],
                "period": {
                    "start": "2014-11-14",
                    "end": "2014-11-14"
                },
                "location": [
                    {
                        "location": {
                            "reference": "Location/eUkRLjoR5rbU.ZJMq6HpRHRBoag3DghclLPf53fcA8.g3",
                            "display": "EMC Oncology Clinic"
                        }
                    }
                ]
            },
            "search": {
                "mode": "match"
            }
        },
        {
            "link": [
                {
                    "relation": "self",
                    "url": "https://appmarket.epic.com/interconnect-amcurprd-oauth/api/FHIR/R4/Encounter/ejF79UBx7tpzzbchw1auv7A3"
                }
            ],
            "fullUrl": "https://appmarket.epic.com/interconnect-amcurprd-oauth/api/FHIR/R4/Encounter/ejF79UBx7tpzzbchw1auv7A3",
            "resource": {
                "resourceType": "Encounter",
                "id": "ejF79UBx7tpzzbchw1auv7A3",
                "identifier": [
                    {
                        "use": "usual",
                        "system": "urn:oid:1.2.840.114350.1.13.0.1.7.3.698084.8",
                        "value": "212"
                    }
                ],
                "status": "finished",
                "class": {
                    "system": "urn:oid:1.2.840.114350.1.72.1.7.7.10.696784.13260",
                    "code": "13",
                    "display": "Support OP Encounter"
                },
                "type": [
                    {
                        "coding": [
                            {
                                "system": "urn:oid:1.2.840.114350.1.13.0.1.7.10.698084.30",
                                "code": "111",
                                "display": "Orders Only"
                            }
                        ],
                        "text": "Orders Only"
                    }
                ],
                "subject": {
                    "reference": "Patient/ePGJfjiWayus47VRmNLCBcA3",
                    "display": "Beacon, Alexandra"
                },
                "episodeOfCare": [
                    {
                        "reference": "EpisodeOfCare/eCylMfiIp8l.KiPILYUeC2w3",
                        "type": "EpisodeOfCare",
                        "display": "ONCOLOGY TREATMENT"
                    }
                ],
                "participant": [
                    {
                        "individual": {
                            "reference": "Practitioner/eM5CWtq15N0WJeuCet5bJlQ3",
                            "type": "Practitioner",
                            "display": "Physician Family Medicine, MD"
                        }
                    }
                ],
                "period": {
                    "start": "2011-01-05",
                    "end": "2011-01-05"
                },
                "location": [
                    {
                        "location": {
                            "reference": "Location/eUkRLjoR5rbU.ZJMq6HpRHRBoag3DghclLPf53fcA8.g3",
                            "display": "EMC Oncology Clinic"
                        }
                    }
                ]
            },
            "search": {
                "mode": "match"
            }
        },
        {
            "link": [
                {
                    "relation": "self",
                    "url": "https://appmarket.epic.com/interconnect-amcurprd-oauth/api/FHIR/R4/Encounter/eTrOltjbo-9fve2j3bKqPsg3"
                }
            ],
            "fullUrl": "https://appmarket.epic.com/interconnect-amcurprd-oauth/api/FHIR/R4/Encounter/eTrOltjbo-9fve2j3bKqPsg3",
            "resource": {
                "resourceType": "Encounter",
                "id": "eTrOltjbo-9fve2j3bKqPsg3",
                "identifier": [
                    {
                        "use": "usual",
                        "system": "urn:oid:1.2.840.114350.1.13.0.1.7.3.698084.8",
                        "value": "214"
                    }
                ],
                "status": "in-progress",
                "class": {
                    "system": "urn:oid:1.2.840.114350.1.72.1.7.7.10.696784.13260",
                    "code": "4",
                    "display": "HOV"
                },
                "type": [
                    {
                        "coding": [
                            {
                                "system": "urn:oid:1.2.840.114350.1.13.0.1.7.10.698084.10110",
                                "code": "102",
                                "display": "Outpatient"
                            }
                        ],
                        "text": "Outpatient"
                    },
                    {
                        "coding": [
                            {
                                "system": "urn:oid:1.2.840.114350.1.13.0.1.7.10.698084.30",
                                "code": "3",
                                "display": "Hospital Encounter"
                            }
                        ],
                        "text": "Hospital Encounter"
                    },
                    {
                        "coding": [
                            {
                                "system": "urn:oid:1.2.840.114350.1.13.0.1.7.2.808267",
                                "code": "1001",
                                "display": "Consultation"
                            }
                        ],
                        "text": "Consultation"
                    },
                    {
                        "coding": [
                            {
                                "system": "urn:oid:1.2.840.114350.1.13.0.1.7.10.698084.18875",
                                "code": "2",
                                "display": "Urgent"
                            }
                        ],
                        "text": "Urgent"
                    }
                ],
                "subject": {
                    "reference": "Patient/ePGJfjiWayus47VRmNLCBcA3",
                    "display": "Beacon, Alexandra"
                },
                "episodeOfCare": [
                    {
                        "reference": "EpisodeOfCare/eCylMfiIp8l.KiPILYUeC2w3",
                        "type": "EpisodeOfCare",
                        "display": "ONCOLOGY TREATMENT"
                    },
                    {
                        "reference": "EpisodeOfCare/eT3kWQMpQKq3jFkyv3HWUXw3",
                        "type": "EpisodeOfCare",
                        "display": "INFUSION TREATMENT"
                    }
                ],
                "participant": [
                    {
                        "period": {
                            "start": "2010-11-21T18:00:00Z",
                            "end": "2010-11-21T18:30:00Z"
                        },
                        "individual": {
                            "reference": "Practitioner/ec30Z4SAQpUQUkACxUZVihQ3",
                            "display": "Physician Beacon, MD"
                        }
                    }
                ],
                "period": {
                    "start": "2010-11-21T18:00:00Z"
                },
                "reasonCode": [
                    {
                        "coding": [
                            {
                                "system": "urn:oid:1.2.840.114350.1.13.0.1.7.2.728286",
                                "code": "160078",
                                "display": "Breast Mass"
                            }
                        ],
                        "text": "Breast Mass"
                    }
                ],
                "account": [
                    {
                        "identifier": {
                            "system": "urn:oid:1.2.840.114350.1.13.0.1.7.2.726582",
                            "value": "20"
                        },
                        "display": "BEACON,ALEXANDRA"
                    }
                ],
                "hospitalization": {
                    "extension": [
                        {
                            "valueDateTime": "2010-11-21T18:00:00Z",
                            "url": "http://open.epic.com/FHIR/StructureDefinition/extension/observation-datetime"
                        }
                    ],
                    "admitSource": {
                        "coding": [
                            {
                                "system": "urn:oid:1.2.840.114350.1.13.0.1.7.10.698084.10310",
                                "code": "2",
                                "display": "Physician or Clinic Office"
                            }
                        ],
                        "text": "Physician or Clinic Office"
                    }
                },
                "location": [
                    {
                        "location": {
                            "reference": "Location/eIFJdH1hm1mbcKtakI4NHq27tpuUFeCGavbGSaa6v1os3",
                            "display": "EMH Oncology Clinic"
                        }
                    },
                    {
                        "location": {
                            "reference": "Location/eIFJdH1hm1mbcKtakI4NHq27tpuUFeCGavbGSaa6v1os3",
                            "display": "EMH Oncology Clinic"
                        }
                    },
                    {
                        "location": {
                            "reference": "Location/eQSOrLdbVrMRc68KBcTBG4A3",
                            "display": "Epic Hospital System"
                        }
                    }
                ]
            },
            "search": {
                "mode": "match"
            }
        },
        {
            "link": [
                {
                    "relation": "self",
                    "url": "https://appmarket.epic.com/interconnect-amcurprd-oauth/api/FHIR/R4/Encounter/epd0-3pyA8sNJJIRUEcoNRg3"
                }
            ],
            "fullUrl": "https://appmarket.epic.com/interconnect-amcurprd-oauth/api/FHIR/R4/Encounter/epd0-3pyA8sNJJIRUEcoNRg3",
            "resource": {
                "resourceType": "Encounter",
                "id": "epd0-3pyA8sNJJIRUEcoNRg3",
                "identifier": [
                    {
                        "use": "usual",
                        "system": "urn:oid:1.2.840.114350.1.13.0.1.7.3.698084.8",
                        "value": "215"
                    }
                ],
                "status": "arrived",
                "class": {
                    "system": "urn:oid:1.2.840.114350.1.72.1.7.7.10.696784.13260",
                    "code": "5",
                    "display": "Appointment"
                },
                "type": [
                    {
                        "coding": [
                            {
                                "system": "urn:oid:1.2.840.114350.1.13.0.1.7.10.698084.30",
                                "code": "101",
                                "display": "Office Visit"
                            }
                        ],
                        "text": "Office Visit"
                    },
                    {
                        "coding": [
                            {
                                "system": "urn:oid:1.2.840.114350.1.13.0.1.7.2.808267",
                                "code": "1004",
                                "display": "Office Visit"
                            }
                        ],
                        "text": "Office Visit"
                    }
                ],
                "subject": {
                    "reference": "Patient/ePGJfjiWayus47VRmNLCBcA3",
                    "display": "Beacon, Alexandra"
                },
                "episodeOfCare": [
                    {
                        "reference": "EpisodeOfCare/eKZQMcN7QHzw02IrnbZiP6Q3",
                        "type": "EpisodeOfCare",
                        "display": "DIALYSIS"
                    }
                ],
                "participant": [
                    {
                        "period": {
                            "start": "2010-10-22T18:00:00Z",
                            "end": "2010-10-22T18:15:00Z"
                        },
                        "individual": {
                            "reference": "Practitioner/eM5CWtq15N0WJeuCet5bJlQ3",
                            "display": "Physician Family Medicine, MD"
                        }
                    }
                ],
                "period": {
                    "start": "2010-10-22T18:00:00Z",
                    "end": "2010-10-22T18:15:00Z"
                },
                "reasonCode": [
                    {
                        "coding": [
                            {
                                "system": "urn:oid:1.2.840.114350.1.13.0.1.7.2.728286",
                                "code": "16",
                                "display": "Breast Problem"
                            }
                        ],
                        "text": "Breast Problem"
                    }
                ],
                "location": [
                    {
                        "location": {
                            "reference": "Location/e4W4rmGe9QzuGm2Dy4NBqVc0KDe6yGld6HW95UuN-Qd03",
                            "display": "EMC Family Medicine"
                        }
                    }
                ]
            },
            "search": {
                "mode": "match"
            }
        },
        {
            "link": [
                {
                    "relation": "self",
                    "url": "https://appmarket.epic.com/interconnect-amcurprd-oauth/api/FHIR/R4/Encounter/erXS6XluyyK9xnfn36L-iVw3"
                }
            ],
            "fullUrl": "https://appmarket.epic.com/interconnect-amcurprd-oauth/api/FHIR/R4/Encounter/erXS6XluyyK9xnfn36L-iVw3",
            "resource": {
                "resourceType": "Encounter",
                "id": "erXS6XluyyK9xnfn36L-iVw3",
                "identifier": [
                    {
                        "use": "usual",
                        "system": "urn:oid:1.2.840.114350.1.13.0.1.7.3.698084.8",
                        "value": "216"
                    }
                ],
                "status": "arrived",
                "class": {
                    "system": "urn:oid:1.2.840.114350.1.72.1.7.7.10.696784.13260",
                    "code": "5",
                    "display": "Appointment"
                },
                "type": [
                    {
                        "coding": [
                            {
                                "system": "urn:oid:1.2.840.114350.1.13.0.1.7.10.698084.30",
                                "code": "101",
                                "display": "Office Visit"
                            }
                        ],
                        "text": "Office Visit"
                    },
                    {
                        "coding": [
                            {
                                "system": "urn:oid:1.2.840.114350.1.13.0.1.7.2.808267",
                                "code": "1004",
                                "display": "Office Visit"
                            }
                        ],
                        "text": "Office Visit"
                    }
                ],
                "subject": {
                    "reference": "Patient/ePGJfjiWayus47VRmNLCBcA3",
                    "display": "Beacon, Alexandra"
                },
                "participant": [
                    {
                        "period": {
                            "start": "2010-08-23T17:45:00Z",
                            "end": "2010-08-23T18:00:00Z"
                        },
                        "individual": {
                            "reference": "Practitioner/eM5CWtq15N0WJeuCet5bJlQ3",
                            "display": "Physician Family Medicine, MD"
                        }
                    }
                ],
                "period": {
                    "start": "2010-08-23T17:45:00Z",
                    "end": "2010-08-23T18:00:00Z"
                },
                "reasonCode": [
                    {
                        "coding": [
                            {
                                "system": "urn:oid:1.2.840.114350.1.13.0.1.7.2.728286",
                                "code": "83",
                                "display": "Annual Exam"
                            }
                        ],
                        "text": "Annual Exam"
                    },
                    {
                        "coding": [
                            {
                                "system": "urn:oid:1.2.840.114350.1.13.0.1.7.2.728286",
                                "code": "160698",
                                "display": "Migraine"
                            }
                        ],
                        "text": "Migraine"
                    }
                ],
                "location": [
                    {
                        "location": {
                            "reference": "Location/e4W4rmGe9QzuGm2Dy4NBqVc0KDe6yGld6HW95UuN-Qd03",
                            "display": "EMC Family Medicine"
                        }
                    }
                ]
            },
            "search": {
                "mode": "match"
            }
        },
        {
            "link": [
                {
                    "relation": "self",
                    "url": "https://appmarket.epic.com/interconnect-amcurprd-oauth/api/FHIR/R4/Encounter/e3H2-NBtbfSRY3jzW2qToWg3"
                }
            ],
            "fullUrl": "https://appmarket.epic.com/interconnect-amcurprd-oauth/api/FHIR/R4/Encounter/e3H2-NBtbfSRY3jzW2qToWg3",
            "resource": {
                "resourceType": "Encounter",
                "id": "e3H2-NBtbfSRY3jzW2qToWg3",
                "identifier": [
                    {
                        "use": "usual",
                        "system": "urn:oid:1.2.840.114350.1.13.0.1.7.3.698084.8",
                        "value": "217"
                    }
                ],
                "status": "arrived",
                "class": {
                    "system": "urn:oid:1.2.840.114350.1.72.1.7.7.10.696784.13260",
                    "code": "5",
                    "display": "Appointment"
                },
                "type": [
                    {
                        "coding": [
                            {
                                "system": "urn:oid:1.2.840.114350.1.13.0.1.7.10.698084.30",
                                "code": "101",
                                "display": "Office Visit"
                            }
                        ],
                        "text": "Office Visit"
                    },
                    {
                        "coding": [
                            {
                                "system": "urn:oid:1.2.840.114350.1.13.0.1.7.2.808267",
                                "code": "1004",
                                "display": "Office Visit"
                            }
                        ],
                        "text": "Office Visit"
                    }
                ],
                "subject": {
                    "reference": "Patient/ePGJfjiWayus47VRmNLCBcA3",
                    "display": "Beacon, Alexandra"
                },
                "participant": [
                    {
                        "period": {
                            "start": "2009-08-27T17:30:00Z",
                            "end": "2009-08-27T17:45:00Z"
                        },
                        "individual": {
                            "reference": "Practitioner/eM5CWtq15N0WJeuCet5bJlQ3",
                            "display": "Physician Family Medicine, MD"
                        }
                    }
                ],
                "period": {
                    "start": "2009-08-27T17:30:00Z",
                    "end": "2009-08-27T17:45:00Z"
                },
                "reasonCode": [
                    {
                        "coding": [
                            {
                                "system": "urn:oid:1.2.840.114350.1.13.0.1.7.2.728286",
                                "code": "83",
                                "display": "Annual Exam"
                            }
                        ],
                        "text": "Annual Exam"
                    }
                ],
                "location": [
                    {
                        "location": {
                            "reference": "Location/e4W4rmGe9QzuGm2Dy4NBqVc0KDe6yGld6HW95UuN-Qd03",
                            "display": "EMC Family Medicine"
                        }
                    }
                ]
            },
            "search": {
                "mode": "match"
            }
        },
        {
            "link": [
                {
                    "relation": "self",
                    "url": "https://appmarket.epic.com/interconnect-amcurprd-oauth/api/FHIR/R4/Encounter/e2io7IzYrMbj5BprkgtQ.2Q3"
                }
            ],
            "fullUrl": "https://appmarket.epic.com/interconnect-amcurprd-oauth/api/FHIR/R4/Encounter/e2io7IzYrMbj5BprkgtQ.2Q3",
            "resource": {
                "resourceType": "Encounter",
                "id": "e2io7IzYrMbj5BprkgtQ.2Q3",
                "identifier": [
                    {
                        "use": "usual",
                        "system": "urn:oid:1.2.840.114350.1.13.0.1.7.3.698084.8",
                        "value": "218"
                    }
                ],
                "status": "unknown",
                "class": {
                    "system": "urn:oid:1.2.840.114350.1.72.1.7.7.10.696784.13260",
                    "code": "13",
                    "display": "Support OP Encounter"
                },
                "subject": {
                    "reference": "Patient/ePGJfjiWayus47VRmNLCBcA3",
                    "display": "Beacon, Alexandra"
                },
                "participant": [
                    {
                        "individual": {
                            "reference": "Practitioner/eM5CWtq15N0WJeuCet5bJlQ3",
                            "type": "Practitioner",
                            "display": "Physician Family Medicine, MD"
                        }
                    }
                ],
                "period": {
                    "start": "2008-12-31",
                    "end": "2008-12-31"
                }
            },
            "search": {
                "mode": "match"
            }
        },
        {
            "link": [
                {
                    "relation": "self",
                    "url": "https://appmarket.epic.com/interconnect-amcurprd-oauth/api/FHIR/R4/Encounter/etu6D1pLH-7-us-PGx7ZVUA3"
                }
            ],
            "fullUrl": "https://appmarket.epic.com/interconnect-amcurprd-oauth/api/FHIR/R4/Encounter/etu6D1pLH-7-us-PGx7ZVUA3",
            "resource": {
                "resourceType": "Encounter",
                "id": "etu6D1pLH-7-us-PGx7ZVUA3",
                "identifier": [
                    {
                        "use": "usual",
                        "system": "urn:oid:1.2.840.114350.1.13.0.1.7.3.698084.8",
                        "value": "219"
                    }
                ],
                "status": "unknown",
                "class": {
                    "system": "urn:oid:1.2.840.114350.1.72.1.7.7.10.696784.13260",
                    "code": "13",
                    "display": "Support OP Encounter"
                },
                "subject": {
                    "reference": "Patient/ePGJfjiWayus47VRmNLCBcA3",
                    "display": "Beacon, Alexandra"
                },
                "participant": [
                    {
                        "individual": {
                            "reference": "Practitioner/eM5CWtq15N0WJeuCet5bJlQ3",
                            "type": "Practitioner",
                            "display": "Physician Family Medicine, MD"
                        }
                    }
                ],
                "period": {
                    "start": "2008-12-31",
                    "end": "2008-12-31"
                }
            },
            "search": {
                "mode": "match"
            }
        },
        {
            "link": [
                {
                    "relation": "self",
                    "url": "https://appmarket.epic.com/interconnect-amcurprd-oauth/api/FHIR/R4/Encounter/e34p8L5Y9kfBSpIxd2460DA3"
                }
            ],
            "fullUrl": "https://appmarket.epic.com/interconnect-amcurprd-oauth/api/FHIR/R4/Encounter/e34p8L5Y9kfBSpIxd2460DA3",
            "resource": {
                "resourceType": "Encounter",
                "id": "e34p8L5Y9kfBSpIxd2460DA3",
                "identifier": [
                    {
                        "use": "usual",
                        "system": "urn:oid:1.2.840.114350.1.13.0.1.7.3.698084.8",
                        "value": "220"
                    }
                ],
                "status": "unknown",
                "class": {
                    "system": "urn:oid:1.2.840.114350.1.72.1.7.7.10.696784.13260",
                    "code": "13",
                    "display": "Support OP Encounter"
                },
                "subject": {
                    "reference": "Patient/ePGJfjiWayus47VRmNLCBcA3",
                    "display": "Beacon, Alexandra"
                },
                "participant": [
                    {
                        "individual": {
                            "reference": "Practitioner/eM5CWtq15N0WJeuCet5bJlQ3",
                            "type": "Practitioner",
                            "display": "Physician Family Medicine, MD"
                        }
                    }
                ],
                "period": {
                    "start": "2008-12-01",
                    "end": "2008-12-01"
                }
            },
            "search": {
                "mode": "match"
            }
        },
        {
            "link": [
                {
                    "relation": "self",
                    "url": "https://appmarket.epic.com/interconnect-amcurprd-oauth/api/FHIR/R4/Encounter/e.p6qyIY2XWUxcS0VOcRlNg3"
                }
            ],
            "fullUrl": "https://appmarket.epic.com/interconnect-amcurprd-oauth/api/FHIR/R4/Encounter/e.p6qyIY2XWUxcS0VOcRlNg3",
            "resource": {
                "resourceType": "Encounter",
                "id": "e.p6qyIY2XWUxcS0VOcRlNg3",
                "identifier": [
                    {
                        "use": "usual",
                        "system": "urn:oid:1.2.840.114350.1.13.0.1.7.3.698084.8",
                        "value": "221"
                    }
                ],
                "status": "unknown",
                "class": {
                    "system": "urn:oid:1.2.840.114350.1.72.1.7.7.10.696784.13260",
                    "code": "13",
                    "display": "Support OP Encounter"
                },
                "subject": {
                    "reference": "Patient/ePGJfjiWayus47VRmNLCBcA3",
                    "display": "Beacon, Alexandra"
                },
                "participant": [
                    {
                        "individual": {
                            "reference": "Practitioner/eM5CWtq15N0WJeuCet5bJlQ3",
                            "type": "Practitioner",
                            "display": "Physician Family Medicine, MD"
                        }
                    }
                ],
                "period": {
                    "start": "2008-10-02",
                    "end": "2008-10-02"
                }
            },
            "search": {
                "mode": "match"
            }
        },
        {
            "link": [
                {
                    "relation": "self",
                    "url": "https://appmarket.epic.com/interconnect-amcurprd-oauth/api/FHIR/R4/Encounter/ehv25dRgplUpogHj1FGJduw3"
                }
            ],
            "fullUrl": "https://appmarket.epic.com/interconnect-amcurprd-oauth/api/FHIR/R4/Encounter/ehv25dRgplUpogHj1FGJduw3",
            "resource": {
                "resourceType": "Encounter",
                "id": "ehv25dRgplUpogHj1FGJduw3",
                "identifier": [
                    {
                        "use": "usual",
                        "system": "urn:oid:1.2.840.114350.1.13.0.1.7.3.698084.8",
                        "value": "222"
                    }
                ],
                "status": "arrived",
                "class": {
                    "system": "urn:oid:1.2.840.114350.1.72.1.7.7.10.696784.13260",
                    "code": "5",
                    "display": "Appointment"
                },
                "type": [
                    {
                        "coding": [
                            {
                                "system": "urn:oid:1.2.840.114350.1.13.0.1.7.10.698084.30",
                                "code": "101",
                                "display": "Office Visit"
                            }
                        ],
                        "text": "Office Visit"
                    },
                    {
                        "coding": [
                            {
                                "system": "urn:oid:1.2.840.114350.1.13.0.1.7.2.808267",
                                "code": "1004",
                                "display": "Office Visit"
                            }
                        ],
                        "text": "Office Visit"
                    }
                ],
                "subject": {
                    "reference": "Patient/ePGJfjiWayus47VRmNLCBcA3",
                    "display": "Beacon, Alexandra"
                },
                "participant": [
                    {
                        "period": {
                            "start": "2008-08-25T16:45:00Z",
                            "end": "2008-08-25T17:00:00Z"
                        },
                        "individual": {
                            "reference": "Practitioner/eM5CWtq15N0WJeuCet5bJlQ3",
                            "display": "Physician Family Medicine, MD"
                        }
                    }
                ],
                "period": {
                    "start": "2008-08-25T16:45:00Z",
                    "end": "2008-08-25T17:00:00Z"
                },
                "reasonCode": [
                    {
                        "coding": [
                            {
                                "system": "urn:oid:1.2.840.114350.1.13.0.1.7.2.728286",
                                "code": "83",
                                "display": "Annual Exam"
                            }
                        ],
                        "text": "Annual Exam"
                    }
                ],
                "location": [
                    {
                        "location": {
                            "reference": "Location/e4W4rmGe9QzuGm2Dy4NBqVc0KDe6yGld6HW95UuN-Qd03",
                            "display": "EMC Family Medicine"
                        }
                    }
                ]
            },
            "search": {
                "mode": "match"
            }
        },
        {
            "link": [
                {
                    "relation": "self",
                    "url": "https://appmarket.epic.com/interconnect-amcurprd-oauth/api/FHIR/R4/Encounter/empy1BAh4VIhsSGGaSnMb4w3"
                }
            ],
            "fullUrl": "https://appmarket.epic.com/interconnect-amcurprd-oauth/api/FHIR/R4/Encounter/empy1BAh4VIhsSGGaSnMb4w3",
            "resource": {
                "resourceType": "Encounter",
                "id": "empy1BAh4VIhsSGGaSnMb4w3",
                "identifier": [
                    {
                        "use": "usual",
                        "system": "urn:oid:1.2.840.114350.1.13.0.1.7.3.698084.8",
                        "value": "223"
                    }
                ],
                "status": "finished",
                "class": {
                    "system": "urn:oid:1.2.840.114350.1.72.1.7.7.10.696784.13260",
                    "code": "13",
                    "display": "Support OP Encounter"
                },
                "type": [
                    {
                        "coding": [
                            {
                                "system": "urn:oid:1.2.840.114350.1.13.0.1.7.10.698084.30",
                                "code": "107",
                                "display": "Refill"
                            }
                        ],
                        "text": "Refill"
                    }
                ],
                "subject": {
                    "reference": "Patient/ePGJfjiWayus47VRmNLCBcA3",
                    "display": "Beacon, Alexandra"
                },
                "participant": [
                    {
                        "individual": {
                            "reference": "Practitioner/eM5CWtq15N0WJeuCet5bJlQ3",
                            "type": "Practitioner",
                            "display": "Physician Family Medicine, MD"
                        }
                    }
                ],
                "period": {
                    "start": "2008-07-16",
                    "end": "2008-07-16"
                },
                "reasonCode": [
                    {
                        "coding": [
                            {
                                "system": "urn:oid:1.2.840.114350.1.13.0.1.7.2.728286",
                                "code": "160383",
                                "display": "Med Refill"
                            }
                        ],
                        "text": "Med Refill"
                    }
                ],
                "location": [
                    {
                        "location": {
                            "reference": "Location/e4W4rmGe9QzuGm2Dy4NBqVc0KDe6yGld6HW95UuN-Qd03",
                            "display": "EMC Family Medicine"
                        }
                    }
                ]
            },
            "search": {
                "mode": "match"
            }
        },
        {
            "link": [
                {
                    "relation": "self",
                    "url": "https://appmarket.epic.com/interconnect-amcurprd-oauth/api/FHIR/R4/Encounter/egbo20cwnQLhEjefJKo9S9w3"
                }
            ],
            "fullUrl": "https://appmarket.epic.com/interconnect-amcurprd-oauth/api/FHIR/R4/Encounter/egbo20cwnQLhEjefJKo9S9w3",
            "resource": {
                "resourceType": "Encounter",
                "id": "egbo20cwnQLhEjefJKo9S9w3",
                "identifier": [
                    {
                        "use": "usual",
                        "system": "urn:oid:1.2.840.114350.1.13.0.1.7.3.698084.8",
                        "value": "224"
                    }
                ],
                "status": "unknown",
                "class": {
                    "system": "urn:oid:1.2.840.114350.1.72.1.7.7.10.696784.13260",
                    "code": "13",
                    "display": "Support OP Encounter"
                },
                "subject": {
                    "reference": "Patient/ePGJfjiWayus47VRmNLCBcA3",
                    "display": "Beacon, Alexandra"
                },
                "participant": [
                    {
                        "individual": {
                            "reference": "Practitioner/eM5CWtq15N0WJeuCet5bJlQ3",
                            "type": "Practitioner",
                            "display": "Physician Family Medicine, MD"
                        }
                    }
                ],
                "period": {
                    "start": "2008-05-03",
                    "end": "2008-05-03"
                }
            },
            "search": {
                "mode": "match"
            }
        },
        {
            "link": [
                {
                    "relation": "self",
                    "url": "https://appmarket.epic.com/interconnect-amcurprd-oauth/api/FHIR/R4/Encounter/ebUKFCp6Jk4CNVIMPPHxqiA3"
                }
            ],
            "fullUrl": "https://appmarket.epic.com/interconnect-amcurprd-oauth/api/FHIR/R4/Encounter/ebUKFCp6Jk4CNVIMPPHxqiA3",
            "resource": {
                "resourceType": "Encounter",
                "id": "ebUKFCp6Jk4CNVIMPPHxqiA3",
                "identifier": [
                    {
                        "use": "usual",
                        "system": "urn:oid:1.2.840.114350.1.13.0.1.7.3.698084.8",
                        "value": "225"
                    }
                ],
                "status": "unknown",
                "class": {
                    "system": "urn:oid:1.2.840.114350.1.72.1.7.7.10.696784.13260",
                    "code": "13",
                    "display": "Support OP Encounter"
                },
                "subject": {
                    "reference": "Patient/ePGJfjiWayus47VRmNLCBcA3",
                    "display": "Beacon, Alexandra"
                },
                "participant": [
                    {
                        "individual": {
                            "reference": "Practitioner/eM5CWtq15N0WJeuCet5bJlQ3",
                            "type": "Practitioner",
                            "display": "Physician Family Medicine, MD"
                        }
                    }
                ],
                "period": {
                    "start": "2008-05-03",
                    "end": "2008-05-03"
                }
            },
            "search": {
                "mode": "match"
            }
        },
        {
            "link": [
                {
                    "relation": "self",
                    "url": "https://appmarket.epic.com/interconnect-amcurprd-oauth/api/FHIR/R4/Encounter/eJj0N.Up1cr5KpV2xqzIriQ3"
                }
            ],
            "fullUrl": "https://appmarket.epic.com/interconnect-amcurprd-oauth/api/FHIR/R4/Encounter/eJj0N.Up1cr5KpV2xqzIriQ3",
            "resource": {
                "resourceType": "Encounter",
                "id": "eJj0N.Up1cr5KpV2xqzIriQ3",
                "identifier": [
                    {
                        "use": "usual",
                        "system": "urn:oid:1.2.840.114350.1.13.0.1.7.3.698084.8",
                        "value": "226"
                    }
                ],
                "status": "unknown",
                "class": {
                    "system": "urn:oid:1.2.840.114350.1.72.1.7.7.10.696784.13260",
                    "code": "13",
                    "display": "Support OP Encounter"
                },
                "subject": {
                    "reference": "Patient/ePGJfjiWayus47VRmNLCBcA3",
                    "display": "Beacon, Alexandra"
                },
                "participant": [
                    {
                        "individual": {
                            "reference": "Practitioner/eM5CWtq15N0WJeuCet5bJlQ3",
                            "type": "Practitioner",
                            "display": "Physician Family Medicine, MD"
                        }
                    }
                ],
                "period": {
                    "start": "2008-04-03",
                    "end": "2008-04-03"
                }
            },
            "search": {
                "mode": "match"
            }
        },
        {
            "link": [
                {
                    "relation": "self",
                    "url": "https://appmarket.epic.com/interconnect-amcurprd-oauth/api/FHIR/R4/Encounter/eHnryfWLG1lRsHNL1VRB.bg3"
                }
            ],
            "fullUrl": "https://appmarket.epic.com/interconnect-amcurprd-oauth/api/FHIR/R4/Encounter/eHnryfWLG1lRsHNL1VRB.bg3",
            "resource": {
                "resourceType": "Encounter",
                "id": "eHnryfWLG1lRsHNL1VRB.bg3",
                "identifier": [
                    {
                        "use": "usual",
                        "system": "urn:oid:1.2.840.114350.1.13.0.1.7.3.698084.8",
                        "value": "227"
                    }
                ],
                "status": "unknown",
                "class": {
                    "system": "urn:oid:1.2.840.114350.1.72.1.7.7.10.696784.13260",
                    "code": "13",
                    "display": "Support OP Encounter"
                },
                "subject": {
                    "reference": "Patient/ePGJfjiWayus47VRmNLCBcA3",
                    "display": "Beacon, Alexandra"
                },
                "participant": [
                    {
                        "individual": {
                            "reference": "Practitioner/eM5CWtq15N0WJeuCet5bJlQ3",
                            "type": "Practitioner",
                            "display": "Physician Family Medicine, MD"
                        }
                    }
                ],
                "period": {
                    "start": "2008-02-03",
                    "end": "2008-02-03"
                }
            },
            "search": {
                "mode": "match"
            }
        },
        {
            "link": [
                {
                    "relation": "self",
                    "url": "https://appmarket.epic.com/interconnect-amcurprd-oauth/api/FHIR/R4/Encounter/eb5SSCSE2fM9amuApK-nJdw3"
                }
            ],
            "fullUrl": "https://appmarket.epic.com/interconnect-amcurprd-oauth/api/FHIR/R4/Encounter/eb5SSCSE2fM9amuApK-nJdw3",
            "resource": {
                "resourceType": "Encounter",
                "id": "eb5SSCSE2fM9amuApK-nJdw3",
                "identifier": [
                    {
                        "use": "usual",
                        "system": "urn:oid:1.2.840.114350.1.13.0.1.7.3.698084.8",
                        "value": "228"
                    }
                ],
                "status": "unknown",
                "class": {
                    "system": "urn:oid:1.2.840.114350.1.72.1.7.7.10.696784.13260",
                    "code": "13",
                    "display": "Support OP Encounter"
                },
                "subject": {
                    "reference": "Patient/ePGJfjiWayus47VRmNLCBcA3",
                    "display": "Beacon, Alexandra"
                },
                "participant": [
                    {
                        "individual": {
                            "reference": "Practitioner/eM5CWtq15N0WJeuCet5bJlQ3",
                            "type": "Practitioner",
                            "display": "Physician Family Medicine, MD"
                        }
                    }
                ],
                "period": {
                    "start": "2007-10-07",
                    "end": "2007-10-07"
                }
            },
            "search": {
                "mode": "match"
            }
        },
        {
            "link": [
                {
                    "relation": "self",
                    "url": "https://appmarket.epic.com/interconnect-amcurprd-oauth/api/FHIR/R4/Encounter/eL1CC2m93u0YJBdgWI1LHpQ3"
                }
            ],
            "fullUrl": "https://appmarket.epic.com/interconnect-amcurprd-oauth/api/FHIR/R4/Encounter/eL1CC2m93u0YJBdgWI1LHpQ3",
            "resource": {
                "resourceType": "Encounter",
                "id": "eL1CC2m93u0YJBdgWI1LHpQ3",
                "identifier": [
                    {
                        "use": "usual",
                        "system": "urn:oid:1.2.840.114350.1.13.0.1.7.3.698084.8",
                        "value": "230"
                    }
                ],
                "status": "arrived",
                "class": {
                    "system": "urn:oid:1.2.840.114350.1.72.1.7.7.10.696784.13260",
                    "code": "5",
                    "display": "Appointment"
                },
                "type": [
                    {
                        "coding": [
                            {
                                "system": "urn:oid:1.2.840.114350.1.13.0.1.7.10.698084.30",
                                "code": "101",
                                "display": "Office Visit"
                            }
                        ],
                        "text": "Office Visit"
                    },
                    {
                        "coding": [
                            {
                                "system": "urn:oid:1.2.840.114350.1.13.0.1.7.2.808267",
                                "code": "1004",
                                "display": "Office Visit"
                            }
                        ],
                        "text": "Office Visit"
                    }
                ],
                "subject": {
                    "reference": "Patient/ePGJfjiWayus47VRmNLCBcA3",
                    "display": "Beacon, Alexandra"
                },
                "participant": [
                    {
                        "period": {
                            "start": "2007-07-15T16:30:00Z",
                            "end": "2007-07-15T16:45:00Z"
                        },
                        "individual": {
                            "reference": "Practitioner/eM5CWtq15N0WJeuCet5bJlQ3",
                            "display": "Physician Family Medicine, MD"
                        }
                    }
                ],
                "period": {
                    "start": "2007-07-15T16:30:00Z",
                    "end": "2007-07-15T16:45:00Z"
                },
                "reasonCode": [
                    {
                        "coding": [
                            {
                                "system": "urn:oid:1.2.840.114350.1.13.0.1.7.2.728286",
                                "code": "83",
                                "display": "Annual Exam"
                            }
                        ],
                        "text": "Annual Exam"
                    }
                ],
                "location": [
                    {
                        "location": {
                            "reference": "Location/e4W4rmGe9QzuGm2Dy4NBqVc0KDe6yGld6HW95UuN-Qd03",
                            "display": "EMC Family Medicine"
                        }
                    }
                ]
            },
            "search": {
                "mode": "match"
            }
        },
        {
            "link": [
                {
                    "relation": "self",
                    "url": "https://appmarket.epic.com/interconnect-amcurprd-oauth/api/FHIR/R4/Encounter/euoxQu4zZFyeBCJPwjP1VVA3"
                }
            ],
            "fullUrl": "https://appmarket.epic.com/interconnect-amcurprd-oauth/api/FHIR/R4/Encounter/euoxQu4zZFyeBCJPwjP1VVA3",
            "resource": {
                "resourceType": "Encounter",
                "id": "euoxQu4zZFyeBCJPwjP1VVA3",
                "identifier": [
                    {
                        "use": "usual",
                        "system": "urn:oid:1.2.840.114350.1.13.0.1.7.3.698084.8",
                        "value": "231"
                    }
                ],
                "status": "unknown",
                "class": {
                    "system": "urn:oid:1.2.840.114350.1.72.1.7.7.10.696784.13260",
                    "code": "13",
                    "display": "Support OP Encounter"
                },
                "subject": {
                    "reference": "Patient/ePGJfjiWayus47VRmNLCBcA3",
                    "display": "Beacon, Alexandra"
                },
                "participant": [
                    {
                        "individual": {
                            "reference": "Practitioner/eM5CWtq15N0WJeuCet5bJlQ3",
                            "type": "Practitioner",
                            "display": "Physician Family Medicine, MD"
                        }
                    }
                ],
                "period": {
                    "start": "2007-02-07",
                    "end": "2007-02-07"
                }
            },
            "search": {
                "mode": "match"
            }
        },
        {
            "link": [
                {
                    "relation": "self",
                    "url": "https://appmarket.epic.com/interconnect-amcurprd-oauth/api/FHIR/R4/Encounter/e2m1qmL5kytRxfFgOFa.6FA3"
                }
            ],
            "fullUrl": "https://appmarket.epic.com/interconnect-amcurprd-oauth/api/FHIR/R4/Encounter/e2m1qmL5kytRxfFgOFa.6FA3",
            "resource": {
                "resourceType": "Encounter",
                "id": "e2m1qmL5kytRxfFgOFa.6FA3",
                "identifier": [
                    {
                        "use": "usual",
                        "system": "urn:oid:1.2.840.114350.1.13.0.1.7.3.698084.8",
                        "value": "232"
                    }
                ],
                "status": "unknown",
                "class": {
                    "system": "urn:oid:1.2.840.114350.1.72.1.7.7.10.696784.13260",
                    "code": "13",
                    "display": "Support OP Encounter"
                },
                "subject": {
                    "reference": "Patient/ePGJfjiWayus47VRmNLCBcA3",
                    "display": "Beacon, Alexandra"
                },
                "participant": [
                    {
                        "individual": {
                            "reference": "Practitioner/eM5CWtq15N0WJeuCet5bJlQ3",
                            "type": "Practitioner",
                            "display": "Physician Family Medicine, MD"
                        }
                    }
                ],
                "period": {
                    "start": "2006-10-05",
                    "end": "2006-10-05"
                }
            },
            "search": {
                "mode": "match"
            }
        },
        {
            "link": [
                {
                    "relation": "self",
                    "url": "https://appmarket.epic.com/interconnect-amcurprd-oauth/api/FHIR/R4/Encounter/ePu69jxyS2AAPYCwGQPH.zA3"
                }
            ],
            "fullUrl": "https://appmarket.epic.com/interconnect-amcurprd-oauth/api/FHIR/R4/Encounter/ePu69jxyS2AAPYCwGQPH.zA3",
            "resource": {
                "resourceType": "Encounter",
                "id": "ePu69jxyS2AAPYCwGQPH.zA3",
                "identifier": [
                    {
                        "use": "usual",
                        "system": "urn:oid:1.2.840.114350.1.13.0.1.7.3.698084.8",
                        "value": "233"
                    }
                ],
                "status": "unknown",
                "class": {
                    "system": "urn:oid:1.2.840.114350.1.72.1.7.7.10.696784.13260",
                    "code": "13",
                    "display": "Support OP Encounter"
                },
                "subject": {
                    "reference": "Patient/ePGJfjiWayus47VRmNLCBcA3",
                    "display": "Beacon, Alexandra"
                },
                "participant": [
                    {
                        "individual": {
                            "reference": "Practitioner/eM5CWtq15N0WJeuCet5bJlQ3",
                            "type": "Practitioner",
                            "display": "Physician Family Medicine, MD"
                        }
                    }
                ],
                "period": {
                    "start": "2006-08-26",
                    "end": "2006-08-26"
                }
            },
            "search": {
                "mode": "match"
            }
        },
        {
            "link": [
                {
                    "relation": "self",
                    "url": "https://appmarket.epic.com/interconnect-amcurprd-oauth/api/FHIR/R4/Encounter/egzMFqTPl839TteywNLB9SA3"
                }
            ],
            "fullUrl": "https://appmarket.epic.com/interconnect-amcurprd-oauth/api/FHIR/R4/Encounter/egzMFqTPl839TteywNLB9SA3",
            "resource": {
                "resourceType": "Encounter",
                "id": "egzMFqTPl839TteywNLB9SA3",
                "identifier": [
                    {
                        "use": "usual",
                        "system": "urn:oid:1.2.840.114350.1.13.0.1.7.3.698084.8",
                        "value": "234"
                    }
                ],
                "status": "arrived",
                "class": {
                    "system": "urn:oid:1.2.840.114350.1.72.1.7.7.10.696784.13260",
                    "code": "5",
                    "display": "Appointment"
                },
                "type": [
                    {
                        "coding": [
                            {
                                "system": "urn:oid:1.2.840.114350.1.13.0.1.7.10.698084.30",
                                "code": "101",
                                "display": "Office Visit"
                            }
                        ],
                        "text": "Office Visit"
                    },
                    {
                        "coding": [
                            {
                                "system": "urn:oid:1.2.840.114350.1.13.0.1.7.2.808267",
                                "code": "1004",
                                "display": "Office Visit"
                            }
                        ],
                        "text": "Office Visit"
                    }
                ],
                "subject": {
                    "reference": "Patient/ePGJfjiWayus47VRmNLCBcA3",
                    "display": "Beacon, Alexandra"
                },
                "participant": [
                    {
                        "period": {
                            "start": "2006-07-16T16:15:00Z",
                            "end": "2006-07-16T16:30:00Z"
                        },
                        "individual": {
                            "reference": "Practitioner/eM5CWtq15N0WJeuCet5bJlQ3",
                            "display": "Physician Family Medicine, MD"
                        }
                    }
                ],
                "period": {
                    "start": "2006-07-16T16:15:00Z",
                    "end": "2006-07-16T16:30:00Z"
                },
                "reasonCode": [
                    {
                        "coding": [
                            {
                                "system": "urn:oid:1.2.840.114350.1.13.0.1.7.2.728286",
                                "code": "83",
                                "display": "Annual Exam"
                            }
                        ],
                        "text": "Annual Exam"
                    }
                ],
                "location": [
                    {
                        "location": {
                            "reference": "Location/e4W4rmGe9QzuGm2Dy4NBqVc0KDe6yGld6HW95UuN-Qd03",
                            "display": "EMC Family Medicine"
                        }
                    }
                ]
            },
            "search": {
                "mode": "match"
            }
        },
        {
            "link": [
                {
                    "relation": "self",
                    "url": "https://appmarket.epic.com/interconnect-amcurprd-oauth/api/FHIR/R4/Encounter/eaGqpiGWo0mD9mpRMbEVU2A3"
                }
            ],
            "fullUrl": "https://appmarket.epic.com/interconnect-amcurprd-oauth/api/FHIR/R4/Encounter/eaGqpiGWo0mD9mpRMbEVU2A3",
            "resource": {
                "resourceType": "Encounter",
                "id": "eaGqpiGWo0mD9mpRMbEVU2A3",
                "identifier": [
                    {
                        "use": "usual",
                        "system": "urn:oid:1.2.840.114350.1.13.0.1.7.3.698084.8",
                        "value": "235"
                    }
                ],
                "status": "unknown",
                "class": {
                    "system": "urn:oid:1.2.840.114350.1.72.1.7.7.10.696784.13260",
                    "code": "13",
                    "display": "Support OP Encounter"
                },
                "subject": {
                    "reference": "Patient/ePGJfjiWayus47VRmNLCBcA3",
                    "display": "Beacon, Alexandra"
                },
                "participant": [
                    {
                        "individual": {
                            "reference": "Practitioner/eM5CWtq15N0WJeuCet5bJlQ3",
                            "type": "Practitioner",
                            "display": "Physician Family Medicine, MD"
                        }
                    }
                ],
                "period": {
                    "start": "2006-02-05",
                    "end": "2006-02-05"
                }
            },
            "search": {
                "mode": "match"
            }
        },
        {
            "link": [
                {
                    "relation": "self",
                    "url": "https://appmarket.epic.com/interconnect-amcurprd-oauth/api/FHIR/R4/Encounter/ejL12kDI8NYOZu0fzrhUikg3"
                }
            ],
            "fullUrl": "https://appmarket.epic.com/interconnect-amcurprd-oauth/api/FHIR/R4/Encounter/ejL12kDI8NYOZu0fzrhUikg3",
            "resource": {
                "resourceType": "Encounter",
                "id": "ejL12kDI8NYOZu0fzrhUikg3",
                "identifier": [
                    {
                        "use": "usual",
                        "system": "urn:oid:1.2.840.114350.1.13.0.1.7.3.698084.8",
                        "value": "236"
                    }
                ],
                "status": "unknown",
                "class": {
                    "system": "urn:oid:1.2.840.114350.1.72.1.7.7.10.696784.13260",
                    "code": "13",
                    "display": "Support OP Encounter"
                },
                "subject": {
                    "reference": "Patient/ePGJfjiWayus47VRmNLCBcA3",
                    "display": "Beacon, Alexandra"
                },
                "participant": [
                    {
                        "individual": {
                            "reference": "Practitioner/eM5CWtq15N0WJeuCet5bJlQ3",
                            "type": "Practitioner",
                            "display": "Physician Family Medicine, MD"
                        }
                    }
                ],
                "period": {
                    "start": "2005-12-27",
                    "end": "2005-12-27"
                }
            },
            "search": {
                "mode": "match"
            }
        },
        {
            "link": [
                {
                    "relation": "self",
                    "url": "https://appmarket.epic.com/interconnect-amcurprd-oauth/api/FHIR/R4/Encounter/e0iFysNIi5KM5uCUmjaEbAg3"
                }
            ],
            "fullUrl": "https://appmarket.epic.com/interconnect-amcurprd-oauth/api/FHIR/R4/Encounter/e0iFysNIi5KM5uCUmjaEbAg3",
            "resource": {
                "resourceType": "Encounter",
                "id": "e0iFysNIi5KM5uCUmjaEbAg3",
                "identifier": [
                    {
                        "use": "usual",
                        "system": "urn:oid:1.2.840.114350.1.13.0.1.7.3.698084.8",
                        "value": "237"
                    }
                ],
                "status": "unknown",
                "class": {
                    "system": "urn:oid:1.2.840.114350.1.72.1.7.7.10.696784.13260",
                    "code": "13",
                    "display": "Support OP Encounter"
                },
                "subject": {
                    "reference": "Patient/ePGJfjiWayus47VRmNLCBcA3",
                    "display": "Beacon, Alexandra"
                },
                "participant": [
                    {
                        "individual": {
                            "reference": "Practitioner/eM5CWtq15N0WJeuCet5bJlQ3",
                            "type": "Practitioner",
                            "display": "Physician Family Medicine, MD"
                        }
                    }
                ],
                "period": {
                    "start": "2005-08-24",
                    "end": "2005-08-24"
                }
            },
            "search": {
                "mode": "match"
            }
        },
        {
            "link": [
                {
                    "relation": "self",
                    "url": "https://appmarket.epic.com/interconnect-amcurprd-oauth/api/FHIR/R4/Encounter/eicAR4deIRoA.YhQ8sVV7xw3"
                }
            ],
            "fullUrl": "https://appmarket.epic.com/interconnect-amcurprd-oauth/api/FHIR/R4/Encounter/eicAR4deIRoA.YhQ8sVV7xw3",
            "resource": {
                "resourceType": "Encounter",
                "id": "eicAR4deIRoA.YhQ8sVV7xw3",
                "identifier": [
                    {
                        "use": "usual",
                        "system": "urn:oid:1.2.840.114350.1.13.0.1.7.3.698084.8",
                        "value": "238"
                    }
                ],
                "status": "unknown",
                "class": {
                    "system": "urn:oid:1.2.840.114350.1.72.1.7.7.10.696784.13260",
                    "code": "13",
                    "display": "Support OP Encounter"
                },
                "subject": {
                    "reference": "Patient/ePGJfjiWayus47VRmNLCBcA3",
                    "display": "Beacon, Alexandra"
                },
                "participant": [
                    {
                        "individual": {
                            "reference": "Practitioner/eM5CWtq15N0WJeuCet5bJlQ3",
                            "type": "Practitioner",
                            "display": "Physician Family Medicine, MD"
                        }
                    }
                ],
                "period": {
                    "start": "2005-08-24",
                    "end": "2005-08-24"
                }
            },
            "search": {
                "mode": "match"
            }
        },
        {
            "link": [
                {
                    "relation": "self",
                    "url": "https://appmarket.epic.com/interconnect-amcurprd-oauth/api/FHIR/R4/Encounter/eN0XFpMPZgtBQiiQu9Ew9kA3"
                }
            ],
            "fullUrl": "https://appmarket.epic.com/interconnect-amcurprd-oauth/api/FHIR/R4/Encounter/eN0XFpMPZgtBQiiQu9Ew9kA3",
            "resource": {
                "resourceType": "Encounter",
                "id": "eN0XFpMPZgtBQiiQu9Ew9kA3",
                "identifier": [
                    {
                        "use": "usual",
                        "system": "urn:oid:1.2.840.114350.1.13.0.1.7.3.698084.8",
                        "value": "239"
                    }
                ],
                "status": "arrived",
                "class": {
                    "system": "urn:oid:1.2.840.114350.1.72.1.7.7.10.696784.13260",
                    "code": "5",
                    "display": "Appointment"
                },
                "type": [
                    {
                        "coding": [
                            {
                                "system": "urn:oid:1.2.840.114350.1.13.0.1.7.10.698084.30",
                                "code": "101",
                                "display": "Office Visit"
                            }
                        ],
                        "text": "Office Visit"
                    },
                    {
                        "coding": [
                            {
                                "system": "urn:oid:1.2.840.114350.1.13.0.1.7.2.808267",
                                "code": "1004",
                                "display": "Office Visit"
                            }
                        ],
                        "text": "Office Visit"
                    }
                ],
                "subject": {
                    "reference": "Patient/ePGJfjiWayus47VRmNLCBcA3",
                    "display": "Beacon, Alexandra"
                },
                "participant": [
                    {
                        "period": {
                            "start": "2005-08-19T20:45:00Z",
                            "end": "2005-08-19T21:00:00Z"
                        },
                        "individual": {
                            "reference": "Practitioner/eM5CWtq15N0WJeuCet5bJlQ3",
                            "display": "Physician Family Medicine, MD"
                        }
                    }
                ],
                "period": {
                    "start": "2005-08-19T20:45:00Z",
                    "end": "2005-08-19T21:00:00Z"
                },
                "reasonCode": [
                    {
                        "coding": [
                            {
                                "system": "urn:oid:1.2.840.114350.1.13.0.1.7.2.728286",
                                "code": "83",
                                "display": "Annual Exam"
                            }
                        ],
                        "text": "Annual Exam"
                    }
                ],
                "location": [
                    {
                        "location": {
                            "reference": "Location/e4W4rmGe9QzuGm2Dy4NBqVc0KDe6yGld6HW95UuN-Qd03",
                            "display": "EMC Family Medicine"
                        }
                    }
                ]
            },
            "search": {
                "mode": "match"
            }
        },
        {
            "link": [
                {
                    "relation": "self",
                    "url": "https://appmarket.epic.com/interconnect-amcurprd-oauth/api/FHIR/R4/Encounter/eVboz.Wx2f--u3.SBFW8pZg3"
                }
            ],
            "fullUrl": "https://appmarket.epic.com/interconnect-amcurprd-oauth/api/FHIR/R4/Encounter/eVboz.Wx2f--u3.SBFW8pZg3",
            "resource": {
                "resourceType": "Encounter",
                "id": "eVboz.Wx2f--u3.SBFW8pZg3",
                "identifier": [
                    {
                        "use": "usual",
                        "system": "urn:oid:1.2.840.114350.1.13.0.1.7.3.698084.8",
                        "value": "240"
                    }
                ],
                "status": "unknown",
                "class": {
                    "system": "urn:oid:1.2.840.114350.1.72.1.7.7.10.696784.13260",
                    "code": "13",
                    "display": "Support OP Encounter"
                },
                "subject": {
                    "reference": "Patient/ePGJfjiWayus47VRmNLCBcA3",
                    "display": "Beacon, Alexandra"
                },
                "participant": [
                    {
                        "individual": {
                            "reference": "Practitioner/eM5CWtq15N0WJeuCet5bJlQ3",
                            "type": "Practitioner",
                            "display": "Physician Family Medicine, MD"
                        }
                    }
                ],
                "period": {
                    "start": "2004-12-25",
                    "end": "2004-12-25"
                }
            },
            "search": {
                "mode": "match"
            }
        },
        {
            "link": [
                {
                    "relation": "self",
                    "url": "https://appmarket.epic.com/interconnect-amcurprd-oauth/api/FHIR/R4/Encounter/eR.cq3Cw7H4oWmDGX2k.A.Q3"
                }
            ],
            "fullUrl": "https://appmarket.epic.com/interconnect-amcurprd-oauth/api/FHIR/R4/Encounter/eR.cq3Cw7H4oWmDGX2k.A.Q3",
            "resource": {
                "resourceType": "Encounter",
                "id": "eR.cq3Cw7H4oWmDGX2k.A.Q3",
                "identifier": [
                    {
                        "use": "usual",
                        "system": "urn:oid:1.2.840.114350.1.13.0.1.7.3.698084.8",
                        "value": "241"
                    }
                ],
                "status": "unknown",
                "class": {
                    "system": "urn:oid:1.2.840.114350.1.72.1.7.7.10.696784.13260",
                    "code": "13",
                    "display": "Support OP Encounter"
                },
                "subject": {
                    "reference": "Patient/ePGJfjiWayus47VRmNLCBcA3",
                    "display": "Beacon, Alexandra"
                },
                "participant": [
                    {
                        "individual": {
                            "reference": "Practitioner/eM5CWtq15N0WJeuCet5bJlQ3",
                            "type": "Practitioner",
                            "display": "Physician Family Medicine, MD"
                        }
                    }
                ],
                "period": {
                    "start": "2004-12-25",
                    "end": "2004-12-25"
                }
            },
            "search": {
                "mode": "match"
            }
        },
        {
            "link": [
                {
                    "relation": "self",
                    "url": "https://appmarket.epic.com/interconnect-amcurprd-oauth/api/FHIR/R4/Encounter/eppGkvQrBsyNyIQrLszknxg3"
                }
            ],
            "fullUrl": "https://appmarket.epic.com/interconnect-amcurprd-oauth/api/FHIR/R4/Encounter/eppGkvQrBsyNyIQrLszknxg3",
            "resource": {
                "resourceType": "Encounter",
                "id": "eppGkvQrBsyNyIQrLszknxg3",
                "identifier": [
                    {
                        "use": "usual",
                        "system": "urn:oid:1.2.840.114350.1.13.0.1.7.3.698084.8",
                        "value": "243"
                    }
                ],
                "status": "arrived",
                "class": {
                    "system": "urn:oid:1.2.840.114350.1.72.1.7.7.10.696784.13260",
                    "code": "5",
                    "display": "Appointment"
                },
                "type": [
                    {
                        "coding": [
                            {
                                "system": "urn:oid:1.2.840.114350.1.13.0.1.7.10.698084.30",
                                "code": "101",
                                "display": "Office Visit"
                            }
                        ],
                        "text": "Office Visit"
                    },
                    {
                        "coding": [
                            {
                                "system": "urn:oid:1.2.840.114350.1.13.0.1.7.2.808267",
                                "code": "1004",
                                "display": "Office Visit"
                            }
                        ],
                        "text": "Office Visit"
                    }
                ],
                "subject": {
                    "reference": "Patient/ePGJfjiWayus47VRmNLCBcA3",
                    "display": "Beacon, Alexandra"
                },
                "participant": [
                    {
                        "period": {
                            "start": "2004-09-23T20:15:00Z",
                            "end": "2004-09-23T20:30:00Z"
                        },
                        "individual": {
                            "reference": "Practitioner/eM5CWtq15N0WJeuCet5bJlQ3",
                            "display": "Physician Family Medicine, MD"
                        }
                    }
                ],
                "period": {
                    "start": "2004-09-23T20:15:00Z",
                    "end": "2004-09-23T20:30:00Z"
                },
                "reasonCode": [
                    {
                        "coding": [
                            {
                                "system": "urn:oid:1.2.840.114350.1.13.0.1.7.2.728286",
                                "code": "1410000014",
                                "display": "UTI"
                            }
                        ],
                        "text": "UTI"
                    }
                ],
                "location": [
                    {
                        "location": {
                            "reference": "Location/e4W4rmGe9QzuGm2Dy4NBqVc0KDe6yGld6HW95UuN-Qd03",
                            "display": "EMC Family Medicine"
                        }
                    }
                ]
            },
            "search": {
                "mode": "match"
            }
        },
        {
            "link": [
                {
                    "relation": "self",
                    "url": "https://appmarket.epic.com/interconnect-amcurprd-oauth/api/FHIR/R4/Encounter/eQLiANe1xmmbaBCZRrdbgFQ3"
                }
            ],
            "fullUrl": "https://appmarket.epic.com/interconnect-amcurprd-oauth/api/FHIR/R4/Encounter/eQLiANe1xmmbaBCZRrdbgFQ3",
            "resource": {
                "resourceType": "Encounter",
                "id": "eQLiANe1xmmbaBCZRrdbgFQ3",
                "identifier": [
                    {
                        "use": "usual",
                        "system": "urn:oid:1.2.840.114350.1.13.0.1.7.3.698084.8",
                        "value": "244"
                    }
                ],
                "status": "finished",
                "class": {
                    "system": "urn:oid:1.2.840.114350.1.72.1.7.7.10.696784.13260",
                    "code": "13",
                    "display": "Support OP Encounter"
                },
                "type": [
                    {
                        "coding": [
                            {
                                "system": "urn:oid:1.2.840.114350.1.13.0.1.7.10.698084.30",
                                "code": "70",
                                "display": "Telephone"
                            }
                        ],
                        "text": "Telephone"
                    }
                ],
                "subject": {
                    "reference": "Patient/ePGJfjiWayus47VRmNLCBcA3",
                    "display": "Beacon, Alexandra"
                },
                "period": {
                    "start": "2004-09-22",
                    "end": "2004-09-22"
                },
                "reasonCode": [
                    {
                        "coding": [
                            {
                                "system": "urn:oid:1.2.840.114350.1.13.0.1.7.2.728286",
                                "code": "1410000014",
                                "display": "UTI"
                            }
                        ],
                        "text": "UTI"
                    }
                ],
                "location": [
                    {
                        "location": {
                            "reference": "Location/e4W4rmGe9QzuGm2Dy4NBqVc0KDe6yGld6HW95UuN-Qd03",
                            "display": "EMC Family Medicine"
                        }
                    }
                ]
            },
            "search": {
                "mode": "match"
            }
        },
        {
            "link": [
                {
                    "relation": "self",
                    "url": "https://appmarket.epic.com/interconnect-amcurprd-oauth/api/FHIR/R4/Encounter/eaFUbQlUfMRQRIr12JgtJPQ3"
                }
            ],
            "fullUrl": "https://appmarket.epic.com/interconnect-amcurprd-oauth/api/FHIR/R4/Encounter/eaFUbQlUfMRQRIr12JgtJPQ3",
            "resource": {
                "resourceType": "Encounter",
                "id": "eaFUbQlUfMRQRIr12JgtJPQ3",
                "identifier": [
                    {
                        "use": "usual",
                        "system": "urn:oid:1.2.840.114350.1.13.0.1.7.3.698084.8",
                        "value": "245"
                    }
                ],
                "status": "arrived",
                "class": {
                    "system": "urn:oid:1.2.840.114350.1.72.1.7.7.10.696784.13260",
                    "code": "5",
                    "display": "Appointment"
                },
                "type": [
                    {
                        "coding": [
                            {
                                "system": "urn:oid:1.2.840.114350.1.13.0.1.7.10.698084.30",
                                "code": "101",
                                "display": "Office Visit"
                            }
                        ],
                        "text": "Office Visit"
                    },
                    {
                        "coding": [
                            {
                                "system": "urn:oid:1.2.840.114350.1.13.0.1.7.2.808267",
                                "code": "1004",
                                "display": "Office Visit"
                            }
                        ],
                        "text": "Office Visit"
                    }
                ],
                "subject": {
                    "reference": "Patient/ePGJfjiWayus47VRmNLCBcA3",
                    "display": "Beacon, Alexandra"
                },
                "participant": [
                    {
                        "period": {
                            "start": "2004-09-02T20:00:00Z",
                            "end": "2004-09-02T20:15:00Z"
                        },
                        "individual": {
                            "reference": "Practitioner/eM5CWtq15N0WJeuCet5bJlQ3",
                            "display": "Physician Family Medicine, MD"
                        }
                    }
                ],
                "period": {
                    "start": "2004-09-02T20:00:00Z",
                    "end": "2004-09-02T20:15:00Z"
                },
                "reasonCode": [
                    {
                        "coding": [
                            {
                                "system": "urn:oid:1.2.840.114350.1.13.0.1.7.2.728286",
                                "code": "83",
                                "display": "Annual Exam"
                            }
                        ],
                        "text": "Annual Exam"
                    }
                ],
                "location": [
                    {
                        "location": {
                            "reference": "Location/e4W4rmGe9QzuGm2Dy4NBqVc0KDe6yGld6HW95UuN-Qd03",
                            "display": "EMC Family Medicine"
                        }
                    }
                ]
            },
            "search": {
                "mode": "match"
            }
        },
        {
            "link": [
                {
                    "relation": "self",
                    "url": "https://appmarket.epic.com/interconnect-amcurprd-oauth/api/FHIR/R4/Encounter/eyt.JnCBtz1EoQOR4h5H6qg3"
                }
            ],
            "fullUrl": "https://appmarket.epic.com/interconnect-amcurprd-oauth/api/FHIR/R4/Encounter/eyt.JnCBtz1EoQOR4h5H6qg3",
            "resource": {
                "resourceType": "Encounter",
                "id": "eyt.JnCBtz1EoQOR4h5H6qg3",
                "identifier": [
                    {
                        "use": "usual",
                        "system": "urn:oid:1.2.840.114350.1.13.0.1.7.3.698084.8",
                        "value": "246"
                    }
                ],
                "status": "unknown",
                "class": {
                    "system": "urn:oid:1.2.840.114350.1.72.1.7.7.10.696784.13260",
                    "code": "13",
                    "display": "Support OP Encounter"
                },
                "subject": {
                    "reference": "Patient/ePGJfjiWayus47VRmNLCBcA3",
                    "display": "Beacon, Alexandra"
                },
                "period": {
                    "start": "2004-08-25",
                    "end": "2004-08-25"
                }
            },
            "search": {
                "mode": "match"
            }
        },
        {
            "link": [
                {
                    "relation": "self",
                    "url": "https://appmarket.epic.com/interconnect-amcurprd-oauth/api/FHIR/R4/Encounter/eVEEzZmrLgClt1Brx1SqQAQ3"
                }
            ],
            "fullUrl": "https://appmarket.epic.com/interconnect-amcurprd-oauth/api/FHIR/R4/Encounter/eVEEzZmrLgClt1Brx1SqQAQ3",
            "resource": {
                "resourceType": "Encounter",
                "id": "eVEEzZmrLgClt1Brx1SqQAQ3",
                "identifier": [
                    {
                        "use": "usual",
                        "system": "urn:oid:1.2.840.114350.1.13.0.1.7.3.698084.8",
                        "value": "247"
                    }
                ],
                "status": "unknown",
                "class": {
                    "system": "urn:oid:1.2.840.114350.1.72.1.7.7.10.696784.13260",
                    "code": "13",
                    "display": "Support OP Encounter"
                },
                "subject": {
                    "reference": "Patient/ePGJfjiWayus47VRmNLCBcA3",
                    "display": "Beacon, Alexandra"
                },
                "period": {
                    "start": "2003-12-27",
                    "end": "2003-12-27"
                }
            },
            "search": {
                "mode": "match"
            }
        },
        {
            "link": [
                {
                    "relation": "self",
                    "url": "https://appmarket.epic.com/interconnect-amcurprd-oauth/api/FHIR/R4/Encounter/etkgqo0fLxwDHhMdmi.z53w3"
                }
            ],
            "fullUrl": "https://appmarket.epic.com/interconnect-amcurprd-oauth/api/FHIR/R4/Encounter/etkgqo0fLxwDHhMdmi.z53w3",
            "resource": {
                "resourceType": "Encounter",
                "id": "etkgqo0fLxwDHhMdmi.z53w3",
                "identifier": [
                    {
                        "use": "usual",
                        "system": "urn:oid:1.2.840.114350.1.13.0.1.7.3.698084.8",
                        "value": "248"
                    }
                ],
                "status": "arrived",
                "class": {
                    "system": "urn:oid:1.2.840.114350.1.72.1.7.7.10.696784.13260",
                    "code": "5",
                    "display": "Appointment"
                },
                "type": [
                    {
                        "coding": [
                            {
                                "system": "urn:oid:1.2.840.114350.1.13.0.1.7.10.698084.30",
                                "code": "101",
                                "display": "Office Visit"
                            }
                        ],
                        "text": "Office Visit"
                    },
                    {
                        "coding": [
                            {
                                "system": "urn:oid:1.2.840.114350.1.13.0.1.7.2.808267",
                                "code": "1004",
                                "display": "Office Visit"
                            }
                        ],
                        "text": "Office Visit"
                    }
                ],
                "subject": {
                    "reference": "Patient/ePGJfjiWayus47VRmNLCBcA3",
                    "display": "Beacon, Alexandra"
                },
                "participant": [
                    {
                        "period": {
                            "start": "2003-11-23T20:45:00Z",
                            "end": "2003-11-23T21:00:00Z"
                        },
                        "individual": {
                            "reference": "Practitioner/eM5CWtq15N0WJeuCet5bJlQ3",
                            "display": "Physician Family Medicine, MD"
                        }
                    }
                ],
                "period": {
                    "start": "2003-11-23T20:45:00Z",
                    "end": "2003-11-23T21:00:00Z"
                },
                "reasonCode": [
                    {
                        "coding": [
                            {
                                "system": "urn:oid:1.2.840.114350.1.13.0.1.7.2.728286",
                                "code": "115",
                                "display": "URI"
                            }
                        ],
                        "text": "URI"
                    }
                ],
                "location": [
                    {
                        "location": {
                            "reference": "Location/e4W4rmGe9QzuGm2Dy4NBqVc0KDe6yGld6HW95UuN-Qd03",
                            "display": "EMC Family Medicine"
                        }
                    }
                ]
            },
            "search": {
                "mode": "match"
            }
        },
        {
            "link": [
                {
                    "relation": "self",
                    "url": "https://appmarket.epic.com/interconnect-amcurprd-oauth/api/FHIR/R4/Encounter/e1HmBonwwF1cYq1.pPoXKgQ3"
                }
            ],
            "fullUrl": "https://appmarket.epic.com/interconnect-amcurprd-oauth/api/FHIR/R4/Encounter/e1HmBonwwF1cYq1.pPoXKgQ3",
            "resource": {
                "resourceType": "Encounter",
                "id": "e1HmBonwwF1cYq1.pPoXKgQ3",
                "identifier": [
                    {
                        "use": "usual",
                        "system": "urn:oid:1.2.840.114350.1.13.0.1.7.3.698084.8",
                        "value": "249"
                    }
                ],
                "status": "unknown",
                "class": {
                    "system": "urn:oid:1.2.840.114350.1.72.1.7.7.10.696784.13260",
                    "code": "13",
                    "display": "Support OP Encounter"
                },
                "subject": {
                    "reference": "Patient/ePGJfjiWayus47VRmNLCBcA3",
                    "display": "Beacon, Alexandra"
                },
                "period": {
                    "start": "2003-09-29",
                    "end": "2003-09-29"
                }
            },
            "search": {
                "mode": "match"
            }
        },
        {
            "link": [
                {
                    "relation": "self",
                    "url": "https://appmarket.epic.com/interconnect-amcurprd-oauth/api/FHIR/R4/Encounter/eJ8MBd9eo6jCyQai3x1klaQ3"
                }
            ],
            "fullUrl": "https://appmarket.epic.com/interconnect-amcurprd-oauth/api/FHIR/R4/Encounter/eJ8MBd9eo6jCyQai3x1klaQ3",
            "resource": {
                "resourceType": "Encounter",
                "id": "eJ8MBd9eo6jCyQai3x1klaQ3",
                "identifier": [
                    {
                        "use": "usual",
                        "system": "urn:oid:1.2.840.114350.1.13.0.1.7.3.698084.8",
                        "value": "250"
                    }
                ],
                "status": "arrived",
                "class": {
                    "system": "urn:oid:1.2.840.114350.1.72.1.7.7.10.696784.13260",
                    "code": "5",
                    "display": "Appointment"
                },
                "type": [
                    {
                        "coding": [
                            {
                                "system": "urn:oid:1.2.840.114350.1.13.0.1.7.10.698084.30",
                                "code": "101",
                                "display": "Office Visit"
                            }
                        ],
                        "text": "Office Visit"
                    },
                    {
                        "coding": [
                            {
                                "system": "urn:oid:1.2.840.114350.1.13.0.1.7.2.808267",
                                "code": "1004",
                                "display": "Office Visit"
                            }
                        ],
                        "text": "Office Visit"
                    }
                ],
                "subject": {
                    "reference": "Patient/ePGJfjiWayus47VRmNLCBcA3",
                    "display": "Beacon, Alexandra"
                },
                "participant": [
                    {
                        "period": {
                            "start": "2003-09-10T19:30:00Z",
                            "end": "2003-09-10T19:45:00Z"
                        },
                        "individual": {
                            "reference": "Practitioner/eM5CWtq15N0WJeuCet5bJlQ3",
                            "display": "Physician Family Medicine, MD"
                        }
                    }
                ],
                "period": {
                    "start": "2003-09-10T19:30:00Z",
                    "end": "2003-09-10T19:45:00Z"
                },
                "reasonCode": [
                    {
                        "coding": [
                            {
                                "system": "urn:oid:1.2.840.114350.1.13.0.1.7.2.728286",
                                "code": "83",
                                "display": "Annual Exam"
                            }
                        ],
                        "text": "Annual Exam"
                    }
                ],
                "location": [
                    {
                        "location": {
                            "reference": "Location/e4W4rmGe9QzuGm2Dy4NBqVc0KDe6yGld6HW95UuN-Qd03",
                            "display": "EMC Family Medicine"
                        }
                    }
                ]
            },
            "search": {
                "mode": "match"
            }
        },
        {
            "link": [
                {
                    "relation": "self",
                    "url": "https://appmarket.epic.com/interconnect-amcurprd-oauth/api/FHIR/R4/Encounter/eygRfP3rAlg1ROCYSZG3x6g3"
                }
            ],
            "fullUrl": "https://appmarket.epic.com/interconnect-amcurprd-oauth/api/FHIR/R4/Encounter/eygRfP3rAlg1ROCYSZG3x6g3",
            "resource": {
                "resourceType": "Encounter",
                "id": "eygRfP3rAlg1ROCYSZG3x6g3",
                "identifier": [
                    {
                        "use": "usual",
                        "system": "urn:oid:1.2.840.114350.1.13.0.1.7.3.698084.8",
                        "value": "251"
                    }
                ],
                "status": "finished",
                "class": {
                    "system": "urn:oid:1.2.840.114350.1.72.1.7.7.10.696784.13260",
                    "code": "13",
                    "display": "Support OP Encounter"
                },
                "type": [
                    {
                        "coding": [
                            {
                                "system": "urn:oid:1.2.840.114350.1.13.0.1.7.10.698084.30",
                                "code": "107",
                                "display": "Refill"
                            }
                        ],
                        "text": "Refill"
                    }
                ],
                "subject": {
                    "reference": "Patient/ePGJfjiWayus47VRmNLCBcA3",
                    "display": "Beacon, Alexandra"
                },
                "period": {
                    "start": "2003-08-01",
                    "end": "2003-08-01"
                },
                "reasonCode": [
                    {
                        "coding": [
                            {
                                "system": "urn:oid:1.2.840.114350.1.13.0.1.7.2.728286",
                                "code": "160383",
                                "display": "Med Refill"
                            }
                        ],
                        "text": "Med Refill"
                    }
                ],
                "location": [
                    {
                        "location": {
                            "reference": "Location/e4W4rmGe9QzuGm2Dy4NBqVc0KDe6yGld6HW95UuN-Qd03",
                            "display": "EMC Family Medicine"
                        }
                    }
                ]
            },
            "search": {
                "mode": "match"
            }
        },
        {
            "link": [
                {
                    "relation": "self",
                    "url": "https://appmarket.epic.com/interconnect-amcurprd-oauth/api/FHIR/R4/Encounter/eB503Sd1hnZ2eWHXYWJqmNw3"
                }
            ],
            "fullUrl": "https://appmarket.epic.com/interconnect-amcurprd-oauth/api/FHIR/R4/Encounter/eB503Sd1hnZ2eWHXYWJqmNw3",
            "resource": {
                "resourceType": "Encounter",
                "id": "eB503Sd1hnZ2eWHXYWJqmNw3",
                "identifier": [
                    {
                        "use": "usual",
                        "system": "urn:oid:1.2.840.114350.1.13.0.1.7.3.698084.8",
                        "value": "252"
                    }
                ],
                "status": "unknown",
                "class": {
                    "system": "urn:oid:1.2.840.114350.1.72.1.7.7.10.696784.13260",
                    "code": "13",
                    "display": "Support OP Encounter"
                },
                "subject": {
                    "reference": "Patient/ePGJfjiWayus47VRmNLCBcA3",
                    "display": "Beacon, Alexandra"
                },
                "period": {
                    "start": "2003-01-30",
                    "end": "2003-01-30"
                }
            },
            "search": {
                "mode": "match"
            }
        },
        {
            "link": [
                {
                    "relation": "self",
                    "url": "https://appmarket.epic.com/interconnect-amcurprd-oauth/api/FHIR/R4/Encounter/e.ZkaiM0jSinq5eHtFjd6eQ3"
                }
            ],
            "fullUrl": "https://appmarket.epic.com/interconnect-amcurprd-oauth/api/FHIR/R4/Encounter/e.ZkaiM0jSinq5eHtFjd6eQ3",
            "resource": {
                "resourceType": "Encounter",
                "id": "e.ZkaiM0jSinq5eHtFjd6eQ3",
                "identifier": [
                    {
                        "use": "usual",
                        "system": "urn:oid:1.2.840.114350.1.13.0.1.7.3.698084.8",
                        "value": "253"
                    }
                ],
                "status": "unknown",
                "class": {
                    "system": "urn:oid:1.2.840.114350.1.72.1.7.7.10.696784.13260",
                    "code": "13",
                    "display": "Support OP Encounter"
                },
                "subject": {
                    "reference": "Patient/ePGJfjiWayus47VRmNLCBcA3",
                    "display": "Beacon, Alexandra"
                },
                "period": {
                    "start": "2002-11-03",
                    "end": "2002-11-03"
                }
            },
            "search": {
                "mode": "match"
            }
        },
        {
            "link": [
                {
                    "relation": "self",
                    "url": "https://appmarket.epic.com/interconnect-amcurprd-oauth/api/FHIR/R4/Encounter/eBQgt-CKr4f-dHdaKZN5p5g3"
                }
            ],
            "fullUrl": "https://appmarket.epic.com/interconnect-amcurprd-oauth/api/FHIR/R4/Encounter/eBQgt-CKr4f-dHdaKZN5p5g3",
            "resource": {
                "resourceType": "Encounter",
                "id": "eBQgt-CKr4f-dHdaKZN5p5g3",
                "identifier": [
                    {
                        "use": "usual",
                        "system": "urn:oid:1.2.840.114350.1.13.0.1.7.3.698084.8",
                        "value": "254"
                    }
                ],
                "status": "unknown",
                "class": {
                    "system": "urn:oid:1.2.840.114350.1.72.1.7.7.10.696784.13260",
                    "code": "13",
                    "display": "Support OP Encounter"
                },
                "subject": {
                    "reference": "Patient/ePGJfjiWayus47VRmNLCBcA3",
                    "display": "Beacon, Alexandra"
                },
                "period": {
                    "start": "2002-11-03",
                    "end": "2002-11-03"
                }
            },
            "search": {
                "mode": "match"
            }
        },
        {
            "link": [
                {
                    "relation": "self",
                    "url": "https://appmarket.epic.com/interconnect-amcurprd-oauth/api/FHIR/R4/Encounter/elEF0RTpdKOo8Q6KHDyUlcQ3"
                }
            ],
            "fullUrl": "https://appmarket.epic.com/interconnect-amcurprd-oauth/api/FHIR/R4/Encounter/elEF0RTpdKOo8Q6KHDyUlcQ3",
            "resource": {
                "resourceType": "Encounter",
                "id": "elEF0RTpdKOo8Q6KHDyUlcQ3",
                "identifier": [
                    {
                        "use": "usual",
                        "system": "urn:oid:1.2.840.114350.1.13.0.1.7.3.698084.8",
                        "value": "255"
                    }
                ],
                "status": "unknown",
                "class": {
                    "system": "urn:oid:1.2.840.114350.1.72.1.7.7.10.696784.13260",
                    "code": "13",
                    "display": "Support OP Encounter"
                },
                "subject": {
                    "reference": "Patient/ePGJfjiWayus47VRmNLCBcA3",
                    "display": "Beacon, Alexandra"
                },
                "period": {
                    "start": "2002-11-02",
                    "end": "2002-11-02"
                }
            },
            "search": {
                "mode": "match"
            }
        },
        {
            "link": [
                {
                    "relation": "self",
                    "url": "https://appmarket.epic.com/interconnect-amcurprd-oauth/api/FHIR/R4/Encounter/eyqAcCVUd9v01WLHU0S-wbA3"
                }
            ],
            "fullUrl": "https://appmarket.epic.com/interconnect-amcurprd-oauth/api/FHIR/R4/Encounter/eyqAcCVUd9v01WLHU0S-wbA3",
            "resource": {
                "resourceType": "Encounter",
                "id": "eyqAcCVUd9v01WLHU0S-wbA3",
                "identifier": [
                    {
                        "use": "usual",
                        "system": "urn:oid:1.2.840.114350.1.13.0.1.7.3.698084.8",
                        "value": "256"
                    }
                ],
                "status": "unknown",
                "class": {
                    "system": "urn:oid:1.2.840.114350.1.72.1.7.7.10.696784.13260",
                    "code": "13",
                    "display": "Support OP Encounter"
                },
                "subject": {
                    "reference": "Patient/ePGJfjiWayus47VRmNLCBcA3",
                    "display": "Beacon, Alexandra"
                },
                "period": {
                    "start": "2002-10-13",
                    "end": "2002-10-13"
                }
            },
            "search": {
                "mode": "match"
            }
        },
        {
            "link": [
                {
                    "relation": "self",
                    "url": "https://appmarket.epic.com/interconnect-amcurprd-oauth/api/FHIR/R4/Encounter/ew5jU6EbPEUilDRR7kDLF3A3"
                }
            ],
            "fullUrl": "https://appmarket.epic.com/interconnect-amcurprd-oauth/api/FHIR/R4/Encounter/ew5jU6EbPEUilDRR7kDLF3A3",
            "resource": {
                "resourceType": "Encounter",
                "id": "ew5jU6EbPEUilDRR7kDLF3A3",
                "identifier": [
                    {
                        "use": "usual",
                        "system": "urn:oid:1.2.840.114350.1.13.0.1.7.3.698084.8",
                        "value": "257"
                    }
                ],
                "status": "arrived",
                "class": {
                    "system": "urn:oid:1.2.840.114350.1.72.1.7.7.10.696784.13260",
                    "code": "5",
                    "display": "Appointment"
                },
                "type": [
                    {
                        "coding": [
                            {
                                "system": "urn:oid:1.2.840.114350.1.13.0.1.7.10.698084.30",
                                "code": "101",
                                "display": "Office Visit"
                            }
                        ],
                        "text": "Office Visit"
                    },
                    {
                        "coding": [
                            {
                                "system": "urn:oid:1.2.840.114350.1.13.0.1.7.2.808267",
                                "code": "1004",
                                "display": "Office Visit"
                            }
                        ],
                        "text": "Office Visit"
                    }
                ],
                "subject": {
                    "reference": "Patient/ePGJfjiWayus47VRmNLCBcA3",
                    "display": "Beacon, Alexandra"
                },
                "participant": [
                    {
                        "period": {
                            "start": "2002-08-16T21:30:00Z",
                            "end": "2002-08-16T21:45:00Z"
                        },
                        "individual": {
                            "reference": "Practitioner/eM5CWtq15N0WJeuCet5bJlQ3",
                            "display": "Physician Family Medicine, MD"
                        }
                    }
                ],
                "period": {
                    "start": "2002-08-16T21:30:00Z",
                    "end": "2002-08-16T21:45:00Z"
                },
                "reasonCode": [
                    {
                        "coding": [
                            {
                                "system": "urn:oid:1.2.840.114350.1.13.0.1.7.2.728286",
                                "code": "83",
                                "display": "Annual Exam"
                            }
                        ],
                        "text": "Annual Exam"
                    }
                ],
                "location": [
                    {
                        "location": {
                            "reference": "Location/e4W4rmGe9QzuGm2Dy4NBqVc0KDe6yGld6HW95UuN-Qd03",
                            "display": "EMC Family Medicine"
                        }
                    }
                ]
            },
            "search": {
                "mode": "match"
            }
        },
        {
            "link": [
                {
                    "relation": "self",
                    "url": "https://appmarket.epic.com/interconnect-amcurprd-oauth/api/FHIR/R4/Encounter/eqcRDkTLvEKtKz4nTZv7h7Q3"
                }
            ],
            "fullUrl": "https://appmarket.epic.com/interconnect-amcurprd-oauth/api/FHIR/R4/Encounter/eqcRDkTLvEKtKz4nTZv7h7Q3",
            "resource": {
                "resourceType": "Encounter",
                "id": "eqcRDkTLvEKtKz4nTZv7h7Q3",
                "identifier": [
                    {
                        "use": "usual",
                        "system": "urn:oid:1.2.840.114350.1.13.0.1.7.3.698084.8",
                        "value": "258"
                    }
                ],
                "status": "unknown",
                "class": {
                    "system": "urn:oid:1.2.840.114350.1.72.1.7.7.10.696784.13260",
                    "code": "13",
                    "display": "Support OP Encounter"
                },
                "subject": {
                    "reference": "Patient/ePGJfjiWayus47VRmNLCBcA3",
                    "display": "Beacon, Alexandra"
                },
                "period": {
                    "start": "2002-03-06",
                    "end": "2002-03-06"
                }
            },
            "search": {
                "mode": "match"
            }
        },
        {
            "link": [
                {
                    "relation": "self",
                    "url": "https://appmarket.epic.com/interconnect-amcurprd-oauth/api/FHIR/R4/Encounter/e66dj7Wc9cib2ZwoeMl99QQ3"
                }
            ],
            "fullUrl": "https://appmarket.epic.com/interconnect-amcurprd-oauth/api/FHIR/R4/Encounter/e66dj7Wc9cib2ZwoeMl99QQ3",
            "resource": {
                "resourceType": "Encounter",
                "id": "e66dj7Wc9cib2ZwoeMl99QQ3",
                "identifier": [
                    {
                        "use": "usual",
                        "system": "urn:oid:1.2.840.114350.1.13.0.1.7.3.698084.8",
                        "value": "259"
                    }
                ],
                "status": "unknown",
                "class": {
                    "system": "urn:oid:1.2.840.114350.1.72.1.7.7.10.696784.13260",
                    "code": "13",
                    "display": "Support OP Encounter"
                },
                "subject": {
                    "reference": "Patient/ePGJfjiWayus47VRmNLCBcA3",
                    "display": "Beacon, Alexandra"
                },
                "period": {
                    "start": "2002-03-06",
                    "end": "2002-03-06"
                }
            },
            "search": {
                "mode": "match"
            }
        },
        {
            "link": [
                {
                    "relation": "self",
                    "url": "https://appmarket.epic.com/interconnect-amcurprd-oauth/api/FHIR/R4/Encounter/e-p0BreIzq1x4.E0LbYjZ.g3"
                }
            ],
            "fullUrl": "https://appmarket.epic.com/interconnect-amcurprd-oauth/api/FHIR/R4/Encounter/e-p0BreIzq1x4.E0LbYjZ.g3",
            "resource": {
                "resourceType": "Encounter",
                "id": "e-p0BreIzq1x4.E0LbYjZ.g3",
                "identifier": [
                    {
                        "use": "usual",
                        "system": "urn:oid:1.2.840.114350.1.13.0.1.7.3.698084.8",
                        "value": "260"
                    }
                ],
                "status": "unknown",
                "class": {
                    "system": "urn:oid:1.2.840.114350.1.72.1.7.7.10.696784.13260",
                    "code": "13",
                    "display": "Support OP Encounter"
                },
                "subject": {
                    "reference": "Patient/ePGJfjiWayus47VRmNLCBcA3",
                    "display": "Beacon, Alexandra"
                },
                "period": {
                    "start": "2002-03-05",
                    "end": "2002-03-05"
                }
            },
            "search": {
                "mode": "match"
            }
        },
        {
            "link": [
                {
                    "relation": "self",
                    "url": "https://appmarket.epic.com/interconnect-amcurprd-oauth/api/FHIR/R4/Encounter/eg6wSgjXxrHNn1QIk5agikQ3"
                }
            ],
            "fullUrl": "https://appmarket.epic.com/interconnect-amcurprd-oauth/api/FHIR/R4/Encounter/eg6wSgjXxrHNn1QIk5agikQ3",
            "resource": {
                "resourceType": "Encounter",
                "id": "eg6wSgjXxrHNn1QIk5agikQ3",
                "identifier": [
                    {
                        "use": "usual",
                        "system": "urn:oid:1.2.840.114350.1.13.0.1.7.3.698084.8",
                        "value": "261"
                    }
                ],
                "status": "unknown",
                "class": {
                    "system": "urn:oid:1.2.840.114350.1.72.1.7.7.10.696784.13260",
                    "code": "13",
                    "display": "Support OP Encounter"
                },
                "subject": {
                    "reference": "Patient/ePGJfjiWayus47VRmNLCBcA3",
                    "display": "Beacon, Alexandra"
                },
                "period": {
                    "start": "2002-02-13",
                    "end": "2002-02-13"
                }
            },
            "search": {
                "mode": "match"
            }
        },
        {
            "link": [
                {
                    "relation": "self",
                    "url": "https://appmarket.epic.com/interconnect-amcurprd-oauth/api/FHIR/R4/Encounter/ezpHYngDD4gDWRp.gAyrQSw3"
                }
            ],
            "fullUrl": "https://appmarket.epic.com/interconnect-amcurprd-oauth/api/FHIR/R4/Encounter/ezpHYngDD4gDWRp.gAyrQSw3",
            "resource": {
                "resourceType": "Encounter",
                "id": "ezpHYngDD4gDWRp.gAyrQSw3",
                "identifier": [
                    {
                        "use": "usual",
                        "system": "urn:oid:1.2.840.114350.1.13.0.1.7.3.698084.8",
                        "value": "262"
                    }
                ],
                "status": "unknown",
                "class": {
                    "system": "urn:oid:1.2.840.114350.1.72.1.7.7.10.696784.13260",
                    "code": "13",
                    "display": "Support OP Encounter"
                },
                "subject": {
                    "reference": "Patient/ePGJfjiWayus47VRmNLCBcA3",
                    "display": "Beacon, Alexandra"
                },
                "period": {
                    "start": "2002-01-02",
                    "end": "2002-01-02"
                }
            },
            "search": {
                "mode": "match"
            }
        },
        {
            "link": [
                {
                    "relation": "self",
                    "url": "https://appmarket.epic.com/interconnect-amcurprd-oauth/api/FHIR/R4/Encounter/eAzdZRkXMl8mMSQkYVGStKQ3"
                }
            ],
            "fullUrl": "https://appmarket.epic.com/interconnect-amcurprd-oauth/api/FHIR/R4/Encounter/eAzdZRkXMl8mMSQkYVGStKQ3",
            "resource": {
                "resourceType": "Encounter",
                "id": "eAzdZRkXMl8mMSQkYVGStKQ3",
                "identifier": [
                    {
                        "use": "usual",
                        "system": "urn:oid:1.2.840.114350.1.13.0.1.7.3.698084.8",
                        "value": "263"
                    }
                ],
                "status": "unknown",
                "class": {
                    "system": "urn:oid:1.2.840.114350.1.72.1.7.7.10.696784.13260",
                    "code": "13",
                    "display": "Support OP Encounter"
                },
                "subject": {
                    "reference": "Patient/ePGJfjiWayus47VRmNLCBcA3",
                    "display": "Beacon, Alexandra"
                },
                "period": {
                    "start": "2001-10-20",
                    "end": "2001-10-20"
                }
            },
            "search": {
                "mode": "match"
            }
        },
        {
            "link": [
                {
                    "relation": "self",
                    "url": "https://appmarket.epic.com/interconnect-amcurprd-oauth/api/FHIR/R4/Encounter/ezDS4fnSErHJnDlXwI.Ahfw3"
                }
            ],
            "fullUrl": "https://appmarket.epic.com/interconnect-amcurprd-oauth/api/FHIR/R4/Encounter/ezDS4fnSErHJnDlXwI.Ahfw3",
            "resource": {
                "resourceType": "Encounter",
                "id": "ezDS4fnSErHJnDlXwI.Ahfw3",
                "identifier": [
                    {
                        "use": "usual",
                        "system": "urn:oid:1.2.840.114350.1.13.0.1.7.3.698084.8",
                        "value": "264"
                    }
                ],
                "status": "unknown",
                "class": {
                    "system": "urn:oid:1.2.840.114350.1.72.1.7.7.10.696784.13260",
                    "code": "13",
                    "display": "Support OP Encounter"
                },
                "subject": {
                    "reference": "Patient/ePGJfjiWayus47VRmNLCBcA3",
                    "display": "Beacon, Alexandra"
                },
                "period": {
                    "start": "2001-09-10",
                    "end": "2001-09-10"
                }
            },
            "search": {
                "mode": "match"
            }
        },
        {
            "link": [
                {
                    "relation": "self",
                    "url": "https://appmarket.epic.com/interconnect-amcurprd-oauth/api/FHIR/R4/Encounter/eUoYdMfV4oYakU25XzH1KSQ3"
                }
            ],
            "fullUrl": "https://appmarket.epic.com/interconnect-amcurprd-oauth/api/FHIR/R4/Encounter/eUoYdMfV4oYakU25XzH1KSQ3",
            "resource": {
                "resourceType": "Encounter",
                "id": "eUoYdMfV4oYakU25XzH1KSQ3",
                "identifier": [
                    {
                        "use": "usual",
                        "system": "urn:oid:1.2.840.114350.1.13.0.1.7.3.698084.8",
                        "value": "265"
                    }
                ],
                "status": "arrived",
                "class": {
                    "system": "urn:oid:1.2.840.114350.1.72.1.7.7.10.696784.13260",
                    "code": "5",
                    "display": "Appointment"
                },
                "type": [
                    {
                        "coding": [
                            {
                                "system": "urn:oid:1.2.840.114350.1.13.0.1.7.10.698084.30",
                                "code": "101",
                                "display": "Office Visit"
                            }
                        ],
                        "text": "Office Visit"
                    },
                    {
                        "coding": [
                            {
                                "system": "urn:oid:1.2.840.114350.1.13.0.1.7.2.808267",
                                "code": "1004",
                                "display": "Office Visit"
                            }
                        ],
                        "text": "Office Visit"
                    }
                ],
                "subject": {
                    "reference": "Patient/ePGJfjiWayus47VRmNLCBcA3",
                    "display": "Beacon, Alexandra"
                },
                "participant": [
                    {
                        "period": {
                            "start": "2001-08-16T21:15:00Z",
                            "end": "2001-08-16T21:30:00Z"
                        },
                        "individual": {
                            "reference": "Practitioner/eM5CWtq15N0WJeuCet5bJlQ3",
                            "display": "Physician Family Medicine, MD"
                        }
                    }
                ],
                "period": {
                    "start": "2001-08-16T21:15:00Z",
                    "end": "2001-08-16T21:30:00Z"
                },
                "reasonCode": [
                    {
                        "coding": [
                            {
                                "system": "urn:oid:1.2.840.114350.1.13.0.1.7.2.728286",
                                "code": "83",
                                "display": "Annual Exam"
                            }
                        ],
                        "text": "Annual Exam"
                    }
                ],
                "location": [
                    {
                        "location": {
                            "reference": "Location/e4W4rmGe9QzuGm2Dy4NBqVc0KDe6yGld6HW95UuN-Qd03",
                            "display": "EMC Family Medicine"
                        }
                    }
                ]
            },
            "search": {
                "mode": "match"
            }
        },
        {
            "link": [
                {
                    "relation": "self",
                    "url": "https://appmarket.epic.com/interconnect-amcurprd-oauth/api/FHIR/R4/Encounter/eixWOoSTz98pv5FpjxSlb2Q3"
                }
            ],
            "fullUrl": "https://appmarket.epic.com/interconnect-amcurprd-oauth/api/FHIR/R4/Encounter/eixWOoSTz98pv5FpjxSlb2Q3",
            "resource": {
                "resourceType": "Encounter",
                "id": "eixWOoSTz98pv5FpjxSlb2Q3",
                "identifier": [
                    {
                        "use": "usual",
                        "system": "urn:oid:1.2.840.114350.1.13.0.1.7.3.698084.8",
                        "value": "266"
                    }
                ],
                "status": "unknown",
                "class": {
                    "system": "urn:oid:1.2.840.114350.1.72.1.7.7.10.696784.13260",
                    "code": "13",
                    "display": "Support OP Encounter"
                },
                "subject": {
                    "reference": "Patient/ePGJfjiWayus47VRmNLCBcA3",
                    "display": "Beacon, Alexandra"
                },
                "period": {
                    "start": "2001-05-05",
                    "end": "2001-05-05"
                }
            },
            "search": {
                "mode": "match"
            }
        },
        {
            "link": [
                {
                    "relation": "self",
                    "url": "https://appmarket.epic.com/interconnect-amcurprd-oauth/api/FHIR/R4/Encounter/eyy.F8UriKyi3UFoNXp05oQ3"
                }
            ],
            "fullUrl": "https://appmarket.epic.com/interconnect-amcurprd-oauth/api/FHIR/R4/Encounter/eyy.F8UriKyi3UFoNXp05oQ3",
            "resource": {
                "resourceType": "Encounter",
                "id": "eyy.F8UriKyi3UFoNXp05oQ3",
                "identifier": [
                    {
                        "use": "usual",
                        "system": "urn:oid:1.2.840.114350.1.13.0.1.7.3.698084.8",
                        "value": "267"
                    }
                ],
                "status": "unknown",
                "class": {
                    "system": "urn:oid:1.2.840.114350.1.72.1.7.7.10.696784.13260",
                    "code": "13",
                    "display": "Support OP Encounter"
                },
                "subject": {
                    "reference": "Patient/ePGJfjiWayus47VRmNLCBcA3",
                    "display": "Beacon, Alexandra"
                },
                "period": {
                    "start": "2001-02-20",
                    "end": "2001-02-20"
                }
            },
            "search": {
                "mode": "match"
            }
        },
        {
            "link": [
                {
                    "relation": "self",
                    "url": "https://appmarket.epic.com/interconnect-amcurprd-oauth/api/FHIR/R4/Encounter/eeaPwJfPU9qhOC51-izlMcA3"
                }
            ],
            "fullUrl": "https://appmarket.epic.com/interconnect-amcurprd-oauth/api/FHIR/R4/Encounter/eeaPwJfPU9qhOC51-izlMcA3",
            "resource": {
                "resourceType": "Encounter",
                "id": "eeaPwJfPU9qhOC51-izlMcA3",
                "identifier": [
                    {
                        "use": "usual",
                        "system": "urn:oid:1.2.840.114350.1.13.0.1.7.3.698084.8",
                        "value": "268"
                    }
                ],
                "status": "unknown",
                "class": {
                    "system": "urn:oid:1.2.840.114350.1.72.1.7.7.10.696784.13260",
                    "code": "13",
                    "display": "Support OP Encounter"
                },
                "subject": {
                    "reference": "Patient/ePGJfjiWayus47VRmNLCBcA3",
                    "display": "Beacon, Alexandra"
                },
                "period": {
                    "start": "2001-01-11",
                    "end": "2001-01-11"
                }
            },
            "search": {
                "mode": "match"
            }
        },
        {
            "link": [
                {
                    "relation": "self",
                    "url": "https://appmarket.epic.com/interconnect-amcurprd-oauth/api/FHIR/R4/Encounter/e6nx7e6TqUfCZCp4qhFm45w3"
                }
            ],
            "fullUrl": "https://appmarket.epic.com/interconnect-amcurprd-oauth/api/FHIR/R4/Encounter/e6nx7e6TqUfCZCp4qhFm45w3",
            "resource": {
                "resourceType": "Encounter",
                "id": "e6nx7e6TqUfCZCp4qhFm45w3",
                "identifier": [
                    {
                        "use": "usual",
                        "system": "urn:oid:1.2.840.114350.1.13.0.1.7.3.698084.8",
                        "value": "269"
                    }
                ],
                "status": "unknown",
                "class": {
                    "system": "urn:oid:1.2.840.114350.1.72.1.7.7.10.696784.13260",
                    "code": "13",
                    "display": "Support OP Encounter"
                },
                "subject": {
                    "reference": "Patient/ePGJfjiWayus47VRmNLCBcA3",
                    "display": "Beacon, Alexandra"
                },
                "period": {
                    "start": "2000-09-25",
                    "end": "2000-09-25"
                }
            },
            "search": {
                "mode": "match"
            }
        },
        {
            "link": [
                {
                    "relation": "self",
                    "url": "https://appmarket.epic.com/interconnect-amcurprd-oauth/api/FHIR/R4/Encounter/eY6i1mGHMixJeomSpKNZ4zA3"
                }
            ],
            "fullUrl": "https://appmarket.epic.com/interconnect-amcurprd-oauth/api/FHIR/R4/Encounter/eY6i1mGHMixJeomSpKNZ4zA3",
            "resource": {
                "resourceType": "Encounter",
                "id": "eY6i1mGHMixJeomSpKNZ4zA3",
                "identifier": [
                    {
                        "use": "usual",
                        "system": "urn:oid:1.2.840.114350.1.13.0.1.7.3.698084.8",
                        "value": "271"
                    }
                ],
                "status": "arrived",
                "class": {
                    "system": "urn:oid:1.2.840.114350.1.72.1.7.7.10.696784.13260",
                    "code": "5",
                    "display": "Appointment"
                },
                "type": [
                    {
                        "coding": [
                            {
                                "system": "urn:oid:1.2.840.114350.1.13.0.1.7.10.698084.30",
                                "code": "101",
                                "display": "Office Visit"
                            }
                        ],
                        "text": "Office Visit"
                    },
                    {
                        "coding": [
                            {
                                "system": "urn:oid:1.2.840.114350.1.13.0.1.7.2.808267",
                                "code": "1004",
                                "display": "Office Visit"
                            }
                        ],
                        "text": "Office Visit"
                    }
                ],
                "subject": {
                    "reference": "Patient/ePGJfjiWayus47VRmNLCBcA3",
                    "display": "Beacon, Alexandra"
                },
                "participant": [
                    {
                        "period": {
                            "start": "2000-08-21T20:30:00Z",
                            "end": "2000-08-21T20:45:00Z"
                        },
                        "individual": {
                            "reference": "Practitioner/eM5CWtq15N0WJeuCet5bJlQ3",
                            "display": "Physician Family Medicine, MD"
                        }
                    }
                ],
                "period": {
                    "start": "2000-08-21T20:30:00Z",
                    "end": "2000-08-21T20:45:00Z"
                },
                "reasonCode": [
                    {
                        "coding": [
                            {
                                "system": "urn:oid:1.2.840.114350.1.13.0.1.7.2.728286",
                                "code": "42",
                                "display": "Establish Care"
                            }
                        ],
                        "text": "Establish Care"
                    },
                    {
                        "coding": [
                            {
                                "system": "urn:oid:1.2.840.114350.1.13.0.1.7.2.728286",
                                "code": "83",
                                "display": "Annual Exam"
                            }
                        ],
                        "text": "Annual Exam"
                    }
                ],
                "location": [
                    {
                        "location": {
                            "reference": "Location/e4W4rmGe9QzuGm2Dy4NBqVc0KDe6yGld6HW95UuN-Qd03",
                            "display": "EMC Family Medicine"
                        }
                    }
                ]
            },
            "search": {
                "mode": "match"
            }
        },
        {
            "link": [
                {
                    "relation": "self",
                    "url": "https://appmarket.epic.com/interconnect-amcurprd-oauth/api/FHIR/R4/Encounter/eF5tEyUgg1uuYiVzwZ4oChg3"
                }
            ],
            "fullUrl": "https://appmarket.epic.com/interconnect-amcurprd-oauth/api/FHIR/R4/Encounter/eF5tEyUgg1uuYiVzwZ4oChg3",
            "resource": {
                "resourceType": "Encounter",
                "id": "eF5tEyUgg1uuYiVzwZ4oChg3",
                "identifier": [
                    {
                        "use": "usual",
                        "system": "urn:oid:1.2.840.114350.1.13.0.1.7.3.698084.8",
                        "value": "273"
                    }
                ],
                "status": "unknown",
                "class": {
                    "system": "urn:oid:1.2.840.114350.1.72.1.7.7.10.696784.13260",
                    "code": "13",
                    "display": "Support OP Encounter"
                },
                "subject": {
                    "reference": "Patient/ePGJfjiWayus47VRmNLCBcA3",
                    "display": "Beacon, Alexandra"
                },
                "period": {
                    "start": "2000-01-27",
                    "end": "2000-01-27"
                }
            },
            "search": {
                "mode": "match"
            }
        },
        {
            "link": [
                {
                    "relation": "self",
                    "url": "https://appmarket.epic.com/interconnect-amcurprd-oauth/api/FHIR/R4/Encounter/e59SoDzc0xEo9M0ydvaw2YA3"
                }
            ],
            "fullUrl": "https://appmarket.epic.com/interconnect-amcurprd-oauth/api/FHIR/R4/Encounter/e59SoDzc0xEo9M0ydvaw2YA3",
            "resource": {
                "resourceType": "Encounter",
                "id": "e59SoDzc0xEo9M0ydvaw2YA3",
                "identifier": [
                    {
                        "use": "usual",
                        "system": "urn:oid:1.2.840.114350.1.13.0.1.7.3.698084.8",
                        "value": "274"
                    }
                ],
                "status": "unknown",
                "class": {
                    "system": "urn:oid:1.2.840.114350.1.72.1.7.7.10.696784.13260",
                    "code": "13",
                    "display": "Support OP Encounter"
                },
                "subject": {
                    "reference": "Patient/ePGJfjiWayus47VRmNLCBcA3",
                    "display": "Beacon, Alexandra"
                },
                "period": {
                    "start": "1999-09-26",
                    "end": "1999-09-26"
                }
            },
            "search": {
                "mode": "match"
            }
        },
        {
            "link": [
                {
                    "relation": "self",
                    "url": "https://appmarket.epic.com/interconnect-amcurprd-oauth/api/FHIR/R4/Encounter/eLNoOU9A6uuhvowoxjoLLdg3"
                }
            ],
            "fullUrl": "https://appmarket.epic.com/interconnect-amcurprd-oauth/api/FHIR/R4/Encounter/eLNoOU9A6uuhvowoxjoLLdg3",
            "resource": {
                "resourceType": "Encounter",
                "id": "eLNoOU9A6uuhvowoxjoLLdg3",
                "identifier": [
                    {
                        "use": "usual",
                        "system": "urn:oid:1.2.840.114350.1.13.0.1.7.3.698084.8",
                        "value": "275"
                    }
                ],
                "status": "unknown",
                "class": {
                    "system": "urn:oid:1.2.840.114350.1.72.1.7.7.10.696784.13260",
                    "code": "13",
                    "display": "Support OP Encounter"
                },
                "subject": {
                    "reference": "Patient/ePGJfjiWayus47VRmNLCBcA3",
                    "display": "Beacon, Alexandra"
                },
                "period": {
                    "start": "1999-01-27",
                    "end": "1999-01-27"
                }
            },
            "search": {
                "mode": "match"
            }
        },
        {
            "link": [
                {
                    "relation": "self",
                    "url": "https://appmarket.epic.com/interconnect-amcurprd-oauth/api/FHIR/R4/Encounter/euJjiHXWrzLmXL2FLjs4Vgg3"
                }
            ],
            "fullUrl": "https://appmarket.epic.com/interconnect-amcurprd-oauth/api/FHIR/R4/Encounter/euJjiHXWrzLmXL2FLjs4Vgg3",
            "resource": {
                "resourceType": "Encounter",
                "id": "euJjiHXWrzLmXL2FLjs4Vgg3",
                "identifier": [
                    {
                        "use": "usual",
                        "system": "urn:oid:1.2.840.114350.1.13.0.1.7.3.698084.8",
                        "value": "276"
                    }
                ],
                "status": "unknown",
                "class": {
                    "system": "urn:oid:1.2.840.114350.1.72.1.7.7.10.696784.13260",
                    "code": "13",
                    "display": "Support OP Encounter"
                },
                "subject": {
                    "reference": "Patient/ePGJfjiWayus47VRmNLCBcA3",
                    "display": "Beacon, Alexandra"
                },
                "period": {
                    "start": "1998-10-01",
                    "end": "1998-10-01"
                }
            },
            "search": {
                "mode": "match"
            }
        },
        {
            "link": [
                {
                    "relation": "self",
                    "url": "https://appmarket.epic.com/interconnect-amcurprd-oauth/api/FHIR/R4/Encounter/e3qv8o.BW2gTRmrC8-pRC7A3"
                }
            ],
            "fullUrl": "https://appmarket.epic.com/interconnect-amcurprd-oauth/api/FHIR/R4/Encounter/e3qv8o.BW2gTRmrC8-pRC7A3",
            "resource": {
                "resourceType": "Encounter",
                "id": "e3qv8o.BW2gTRmrC8-pRC7A3",
                "identifier": [
                    {
                        "use": "usual",
                        "system": "urn:oid:1.2.840.114350.1.13.0.1.7.3.698084.8",
                        "value": "277"
                    }
                ],
                "status": "unknown",
                "class": {
                    "system": "urn:oid:1.2.840.114350.1.72.1.7.7.10.696784.13260",
                    "code": "13",
                    "display": "Support OP Encounter"
                },
                "subject": {
                    "reference": "Patient/ePGJfjiWayus47VRmNLCBcA3",
                    "display": "Beacon, Alexandra"
                },
                "period": {
                    "start": "1998-10-01",
                    "end": "1998-10-01"
                }
            },
            "search": {
                "mode": "match"
            }
        },
        {
            "link": [
                {
                    "relation": "self",
                    "url": "https://appmarket.epic.com/interconnect-amcurprd-oauth/api/FHIR/R4/Encounter/eNQikW1UNTtomUdg12QIDzg3"
                }
            ],
            "fullUrl": "https://appmarket.epic.com/interconnect-amcurprd-oauth/api/FHIR/R4/Encounter/eNQikW1UNTtomUdg12QIDzg3",
            "resource": {
                "resourceType": "Encounter",
                "id": "eNQikW1UNTtomUdg12QIDzg3",
                "identifier": [
                    {
                        "use": "usual",
                        "system": "urn:oid:1.2.840.114350.1.13.0.1.7.3.698084.8",
                        "value": "278"
                    }
                ],
                "status": "unknown",
                "class": {
                    "system": "urn:oid:1.2.840.114350.1.72.1.7.7.10.696784.13260",
                    "code": "13",
                    "display": "Support OP Encounter"
                },
                "subject": {
                    "reference": "Patient/ePGJfjiWayus47VRmNLCBcA3",
                    "display": "Beacon, Alexandra"
                },
                "period": {
                    "start": "1998-10-01",
                    "end": "1998-10-01"
                }
            },
            "search": {
                "mode": "match"
            }
        },
        {
            "link": [
                {
                    "relation": "self",
                    "url": "https://appmarket.epic.com/interconnect-amcurprd-oauth/api/FHIR/R4/Encounter/eKjiRWXkqkDHUQOaKGphtkQ3"
                }
            ],
            "fullUrl": "https://appmarket.epic.com/interconnect-amcurprd-oauth/api/FHIR/R4/Encounter/eKjiRWXkqkDHUQOaKGphtkQ3",
            "resource": {
                "resourceType": "Encounter",
                "id": "eKjiRWXkqkDHUQOaKGphtkQ3",
                "identifier": [
                    {
                        "use": "usual",
                        "system": "urn:oid:1.2.840.114350.1.13.0.1.7.3.698084.8",
                        "value": "279"
                    }
                ],
                "status": "unknown",
                "class": {
                    "system": "urn:oid:1.2.840.114350.1.72.1.7.7.10.696784.13260",
                    "code": "13",
                    "display": "Support OP Encounter"
                },
                "subject": {
                    "reference": "Patient/ePGJfjiWayus47VRmNLCBcA3",
                    "display": "Beacon, Alexandra"
                },
                "period": {
                    "start": "1998-02-01",
                    "end": "1998-02-01"
                }
            },
            "search": {
                "mode": "match"
            }
        },
        {
            "link": [
                {
                    "relation": "self",
                    "url": "https://appmarket.epic.com/interconnect-amcurprd-oauth/api/FHIR/R4/Encounter/eaxtHjD33lhYvFB2ZMOCjUw3"
                }
            ],
            "fullUrl": "https://appmarket.epic.com/interconnect-amcurprd-oauth/api/FHIR/R4/Encounter/eaxtHjD33lhYvFB2ZMOCjUw3",
            "resource": {
                "resourceType": "Encounter",
                "id": "eaxtHjD33lhYvFB2ZMOCjUw3",
                "identifier": [
                    {
                        "use": "usual",
                        "system": "urn:oid:1.2.840.114350.1.13.0.1.7.3.698084.8",
                        "value": "280"
                    }
                ],
                "status": "unknown",
                "class": {
                    "system": "urn:oid:1.2.840.114350.1.72.1.7.7.10.696784.13260",
                    "code": "13",
                    "display": "Support OP Encounter"
                },
                "subject": {
                    "reference": "Patient/ePGJfjiWayus47VRmNLCBcA3",
                    "display": "Beacon, Alexandra"
                },
                "period": {
                    "start": "1998-02-01",
                    "end": "1998-02-01"
                }
            },
            "search": {
                "mode": "match"
            }
        },
        {
            "link": [
                {
                    "relation": "self",
                    "url": "https://appmarket.epic.com/interconnect-amcurprd-oauth/api/FHIR/R4/Encounter/eoZ9Q7dAa56blBIu-RTKb.g3"
                }
            ],
            "fullUrl": "https://appmarket.epic.com/interconnect-amcurprd-oauth/api/FHIR/R4/Encounter/eoZ9Q7dAa56blBIu-RTKb.g3",
            "resource": {
                "resourceType": "Encounter",
                "id": "eoZ9Q7dAa56blBIu-RTKb.g3",
                "identifier": [
                    {
                        "use": "usual",
                        "system": "urn:oid:1.2.840.114350.1.13.0.1.7.3.698084.8",
                        "value": "281"
                    }
                ],
                "status": "unknown",
                "class": {
                    "system": "urn:oid:1.2.840.114350.1.72.1.7.7.10.696784.13260",
                    "code": "13",
                    "display": "Support OP Encounter"
                },
                "subject": {
                    "reference": "Patient/ePGJfjiWayus47VRmNLCBcA3",
                    "display": "Beacon, Alexandra"
                },
                "period": {
                    "start": "1998-02-01",
                    "end": "1998-02-01"
                }
            },
            "search": {
                "mode": "match"
            }
        },
        {
            "link": [
                {
                    "relation": "self",
                    "url": "https://appmarket.epic.com/interconnect-amcurprd-oauth/api/FHIR/R4/EpisodeOfCare/eCylMfiIp8l.KiPILYUeC2w3"
                }
            ],
            "fullUrl": "https://appmarket.epic.com/interconnect-amcurprd-oauth/api/FHIR/R4/EpisodeOfCare/eCylMfiIp8l.KiPILYUeC2w3",
            "resource": {
                "resourceType": "EpisodeOfCare",
                "id": "eCylMfiIp8l.KiPILYUeC2w3",
                "extension": [
                    {
                        "valueString": "ONCOLOGY TREATMENT",
                        "url": "http://open.epic.com/FHIR/StructureDefinition/extension/episode-name"
                    }
                ],
                "status": "active",
                "type": [
                    {
                        "coding": [
                            {
                                "system": "urn:oid:1.2.840.114350.1.13.0.1.7.2.726668",
                                "code": "10",
                                "display": "ONCOLOGY TREATMENT"
                            },
                            {
                                "system": "urn:oid:1.2.840.114350.1.13.0.1.7.4.726668.130",
                                "code": "18",
                                "display": "Beacon - Treatment Plan"
                            }
                        ],
                        "text": "ONCOLOGY TREATMENT"
                    }
                ],
                "diagnosis": [
                    {
                        "condition": {
                            "reference": "Condition/e-GyCWDgkeWMjeoII93L88w3",
                            "type": "Condition",
                            "display": "Malignant neoplasm of breast (CMS/HCC)"
                        }
                    }
                ],
                "patient": {
                    "reference": "Patient/ePGJfjiWayus47VRmNLCBcA3",
                    "type": "Patient",
                    "display": "Beacon, Alexandra"
                },
                "period": {
                    "start": "2011-01-04"
                },
                "team": [
                    {
                        "reference": "CareTeam/exIUUrW-KNA1UmbabtbnMyi0PUmXZbWDveqqAAQHO9Gw3",
                        "type": "CareTeam"
                    }
                ]
            },
            "search": {
                "mode": "include"
            }
        },
        {
            "link": [
                {
                    "relation": "self",
                    "url": "https://appmarket.epic.com/interconnect-amcurprd-oauth/api/FHIR/R4/EpisodeOfCare/eKZQMcN7QHzw02IrnbZiP6Q3"
                }
            ],
            "fullUrl": "https://appmarket.epic.com/interconnect-amcurprd-oauth/api/FHIR/R4/EpisodeOfCare/eKZQMcN7QHzw02IrnbZiP6Q3",
            "resource": {
                "resourceType": "EpisodeOfCare",
                "id": "eKZQMcN7QHzw02IrnbZiP6Q3",
                "extension": [
                    {
                        "valueString": "DIALYSIS",
                        "url": "http://open.epic.com/FHIR/StructureDefinition/extension/episode-name"
                    }
                ],
                "status": "active",
                "type": [
                    {
                        "coding": [
                            {
                                "system": "urn:oid:1.2.840.114350.1.13.0.1.7.2.726668",
                                "code": "7",
                                "display": "DIALYSIS"
                            },
                            {
                                "system": "urn:oid:1.2.840.114350.1.13.0.1.7.4.726668.130",
                                "code": "19",
                                "display": "Therapy Plan"
                            }
                        ],
                        "text": "DIALYSIS"
                    }
                ],
                "diagnosis": [
                    {
                        "condition": {
                            "reference": "Condition/eeLih9The5vQmHsbi7Ib3Ig3",
                            "type": "Condition",
                            "display": "Family history of migraine headaches"
                        }
                    }
                ],
                "patient": {
                    "reference": "Patient/ePGJfjiWayus47VRmNLCBcA3",
                    "type": "Patient",
                    "display": "Beacon, Alexandra"
                },
                "period": {
                    "start": "2022-01-04"
                },
                "team": [
                    {
                        "reference": "CareTeam/exIUUrW-KNA1UmbabtbnMynFbd7OPOA9LbY-RuZWo93k3",
                        "type": "CareTeam"
                    }
                ]
            },
            "search": {
                "mode": "include"
            }
        },
        {
            "link": [
                {
                    "relation": "self",
                    "url": "https://appmarket.epic.com/interconnect-amcurprd-oauth/api/FHIR/R4/Patient/ePGJfjiWayus47VRmNLCBcA3"
                }
            ],
            "fullUrl": "https://appmarket.epic.com/interconnect-amcurprd-oauth/api/FHIR/R4/Patient/ePGJfjiWayus47VRmNLCBcA3",
            "resource": {
                "resourceType": "Patient",
                "id": "ePGJfjiWayus47VRmNLCBcA3",
                "extension": [
                    {
                        "extension": [
                            {
                                "valueCoding": {
                                    "system": "urn:oid:2.16.840.1.113883.6.238",
                                    "code": "2106-3",
                                    "display": "White"
                                },
                                "url": "ombCategory"
                            },
                            {
                                "valueString": "White",
                                "url": "text"
                            }
                        ],
                        "url": "http://hl7.org/fhir/us/core/StructureDefinition/us-core-race"
                    },
                    {
                        "extension": [
                            {
                                "valueCoding": {
                                    "system": "urn:oid:2.16.840.1.113883.6.238",
                                    "code": "2186-5",
                                    "display": "Not Hispanic or Latino"
                                },
                                "url": "ombCategory"
                            },
                            {
                                "valueString": "Not Hispanic or Latino",
                                "url": "text"
                            }
                        ],
                        "url": "http://hl7.org/fhir/us/core/StructureDefinition/us-core-ethnicity"
                    },
                    {
                        "valueCodeableConcept": {
                            "coding": [
                                {
                                    "system": "urn:oid:1.2.840.114350.1.13.0.1.7.10.698084.130.657370.19999000",
                                    "code": "female",
                                    "display": "female"
                                }
                            ]
                        },
                        "url": "http://open.epic.com/FHIR/StructureDefinition/extension/legal-sex"
                    },
                    {
                        "valueCodeableConcept": {
                            "coding": [
                                {
                                    "system": "urn:oid:1.2.840.114350.1.13.0.1.7.10.698084.130.657370.19999000",
                                    "code": "female",
                                    "display": "female"
                                }
                            ]
                        },
                        "url": "http://open.epic.com/FHIR/StructureDefinition/extension/sex-for-clinical-use"
                    },
                    {
                        "valueCode": "F",
                        "url": "http://hl7.org/fhir/us/core/StructureDefinition/us-core-birthsex"
                    }
                ],
                "identifier": [
                    {
                        "use": "usual",
                        "type": {
                            "text": "CEID"
                        },
                        "system": "urn:epic:apporchard.curprod",
                        "value": "AO1VBP28QLRDM55"
                    },
                    {
                        "use": "usual",
                        "type": {
                            "text": "EPIC"
                        },
                        "system": "urn:oid:1.2.840.114350.1.1",
                        "value": "E2632"
                    },
                    {
                        "use": "usual",
                        "type": {
                            "text": "EXTERNAL"
                        },
                        "system": "urn:oid:1.2.840.114350.1.13.0.1.7.2.698084",
                        "value": "Z4510"
                    },
                    {
                        "use": "usual",
                        "type": {
                            "text": "FHIR"
                        },
                        "system": "http://open.epic.com/FHIR/StructureDefinition/patient-dstu2-fhir-id",
                        "value": "TCX7gMgoXo1l05kGzmThC2o0AkgILUjBGPzAdfEaeG6YB"
                    },
                    {
                        "use": "usual",
                        "type": {
                            "text": "FHIR STU3"
                        },
                        "system": "http://open.epic.com/FHIR/StructureDefinition/patient-fhir-id",
                        "value": "ePGJfjiWayus47VRmNLCBcA3"
                    },
                    {
                        "use": "usual",
                        "type": {
                            "text": "INTERNAL"
                        },
                        "system": "urn:oid:1.2.840.114350.1.13.0.1.7.2.698084",
                        "value": "     Z4510"
                    },
                    {
                        "use": "usual",
                        "type": {
                            "text": "MRN"
                        },
                        "system": "urn:oid:1.2.840.114350.1.13.0.1.7.5.737384.14",
                        "value": "202398"
                    },
                    {
                        "use": "usual",
                        "type": {
                            "text": "MYCHARTLOGIN"
                        },
                        "system": "urn:oid:1.2.840.114350.1.13.0.1.7.3.878082.110",
                        "value": "BEACONALEXANDR"
                    },
                    {
                        "use": "usual",
                        "type": {
                            "text": "WPRINTERNAL"
                        },
                        "system": "urn:oid:1.2.840.114350.1.13.0.1.7.2.878082",
                        "value": "59"
                    }
                ],
                "active": true,
                "name": [
                    {
                        "use": "official",
                        "text": "Alexandra Beacon",
                        "family": "Beacon",
                        "given": [
                            "Alexandra"
                        ]
                    },
                    {
                        "use": "usual",
                        "text": "Alexandra Beacon",
                        "family": "Beacon",
                        "given": [
                            "Alexandra"
                        ]
                    }
                ],
                "telecom": [
                    {
                        "system": "phone",
                        "value": "608-555-4578",
                        "use": "home"
                    },
                    {
                        "system": "phone",
                        "value": "608-555-4785",
                        "use": "work"
                    },
                    {
                        "system": "phone",
                        "value": "608-555-7774",
                        "use": "mobile"
                    }
                ],
                "gender": "female",
                "birthDate": "1978-09-19",
                "deceasedBoolean": false,
                "address": [
                    {
                        "use": "home",
                        "line": [
                            "12457 Snowbird Lane"
                        ],
                        "city": "Madison",
                        "district": "DANE",
                        "state": "WI",
                        "postalCode": "53719",
                        "country": "US"
                    }
                ],
                "maritalStatus": {
                    "text": "Married"
                },
                "contact": [
                    {
                        "relationship": [
                            {
                                "coding": [
                                    {
                                        "system": "http://terminology.hl7.org/CodeSystem/v2-0131",
                                        "code": "C",
                                        "display": "Emergency Contact"
                                    },
                                    {
                                        "system": "urn:oid:1.2.840.114350.1.13.0.1.7.4.827665.1000",
                                        "code": "17",
                                        "display": "Spouse"
                                    }
                                ],
                                "text": "Spouse"
                            }
                        ],
                        "name": {
                            "use": "usual",
                            "text": "Randy Steele"
                        },
                        "telecom": [
                            {
                                "system": "phone",
                                "value": "608-555-4578",
                                "use": "home"
                            }
                        ],
                        "address": {
                            "use": "home",
                            "line": [
                                "12457 Snowbird Lane"
                            ],
                            "city": "Madison",
                            "district": "DANE",
                            "state": "WI",
                            "postalCode": "53719",
                            "country": "US"
                        }
                    },
                    {
                        "relationship": [
                            {
                                "coding": [
                                    {
                                        "system": "http://terminology.hl7.org/CodeSystem/v2-0131",
                                        "code": "E",
                                        "display": "Employer"
                                    }
                                ]
                            }
                        ],
                        "address": {
                            "use": "work",
                            "country": "US"
                        },
                        "organization": {
                            "display": "Whispering Pines Retirement Home"
                        }
                    }
                ],
                "communication": [
                    {
                        "language": {
                            "coding": [
                                {
                                    "system": "urn:ietf:bcp:47",
                                    "code": "en",
                                    "display": "English"
                                }
                            ],
                            "text": "English"
                        },
                        "preferred": true
                    }
                ],
                "generalPractitioner": [
                    {
                        "reference": "Practitioner/eM5CWtq15N0WJeuCet5bJlQ3",
                        "type": "Practitioner",
                        "display": "Physician Family Medicine, MD"
                    }
                ],
                "managingOrganization": {
                    "reference": "Organization/enRyWnSP963FYDpoks4NHOA3",
                    "display": "Epic Hospital System"
                }
            },
            "search": {
                "mode": "include"
            }
        },
        {
            "link": [
                {
                    "relation": "self",
                    "url": "https://appmarket.epic.com/interconnect-amcurprd-oauth/api/FHIR/R4/EpisodeOfCare/eT3kWQMpQKq3jFkyv3HWUXw3"
                }
            ],
            "fullUrl": "https://appmarket.epic.com/interconnect-amcurprd-oauth/api/FHIR/R4/EpisodeOfCare/eT3kWQMpQKq3jFkyv3HWUXw3",
            "resource": {
                "resourceType": "EpisodeOfCare",
                "id": "eT3kWQMpQKq3jFkyv3HWUXw3",
                "extension": [
                    {
                        "valueString": "INFUSION TREATMENT",
                        "url": "http://open.epic.com/FHIR/StructureDefinition/extension/episode-name"
                    }
                ],
                "status": "active",
                "type": [
                    {
                        "coding": [
                            {
                                "system": "urn:oid:1.2.840.114350.1.13.0.1.7.2.726668",
                                "code": "2000000003",
                                "display": "INFUSION TREATMENT"
                            },
                            {
                                "system": "urn:oid:1.2.840.114350.1.13.0.1.7.4.726668.130",
                                "code": "19",
                                "display": "Therapy Plan"
                            }
                        ],
                        "text": "INFUSION TREATMENT"
                    }
                ],
                "diagnosis": [
                    {
                        "condition": {
                            "reference": "Condition/e-GyCWDgkeWMjeoII93L88w3",
                            "type": "Condition",
                            "display": "Malignant neoplasm of breast (CMS/HCC)"
                        }
                    }
                ],
                "patient": {
                    "reference": "Patient/ePGJfjiWayus47VRmNLCBcA3",
                    "type": "Patient",
                    "display": "Beacon, Alexandra"
                },
                "period": {
                    "start": "2021-12-16"
                },
                "team": [
                    {
                        "reference": "CareTeam/exIUUrW-KNA1UmbabtbnMyqgSVraHps6s0nynG9loWyA3",
                        "type": "CareTeam"
                    }
                ]
            },
            "search": {
                "mode": "include"
            }
        }
    ]
}