{
    "resourceType": "Bundle",
    "type": "searchset",
    "total": 16,
    "link": [
        {
            "relation": "self",
            "url": "https://appmarket.epic.com/interconnect-amcurprd-oauth/api/FHIR/R4/Encounter?_include=Encounter:condition&_include=Encounter:episodeOfCare&_include=Encounter:partOf&_include=Encounter:subject&_format=json&patient=eRybav3R8v5FOw67.9aEMCg3"
        }
    ],
    "entry": [
        {
            "link": [
                {
                    "relation": "self",
                    "url": "https://appmarket.epic.com/interconnect-amcurprd-oauth/api/FHIR/R4/Encounter/eyINpTHYhKNwE.gc0IrPMgA3"
                }
            ],
            "fullUrl": "https://appmarket.epic.com/interconnect-amcurprd-oauth/api/FHIR/R4/Encounter/eyINpTHYhKNwE.gc0IrPMgA3",
            "resource": {
                "resourceType": "Encounter",
                "id": "eyINpTHYhKNwE.gc0IrPMgA3",
                "identifier": [
                    {
                        "use": "usual",
                        "system": "urn:oid:1.2.840.114350.1.13.0.1.7.3.698084.8",
                        "value": "34733"
                    }
                ],
                "status": "planned",
                "class": {
                    "system": "urn:oid:1.2.840.114350.1.72.1.7.7.10.696784.13260",
                    "code": "2",
                    "display": "Preadmission"
                },
                "type": [
                    {
                        "coding": [
                            {
                                "system": "urn:oid:1.2.840.114350.1.13.0.1.7.10.698084.10110",
                                "code": "108",
                                "display": "Surgery Admit"
                            }
                        ],
                        "text": "Surgery Admit"
                    },
                    {
                        "coding": [
                            {
                                "system": "urn:oid:1.2.840.114350.1.13.0.1.7.10.698084.30",
                                "code": "3",
                                "display": "Hospital Encounter"
                            }
                        ],
                        "text": "Hospital Encounter"
                    }
                ],
                "serviceType": {
                    "coding": [
                        {
                            "system": "urn:oid:1.2.840.114350.1.13.0.1.7.10.698084.18886",
                            "code": "102",
                            "display": "Cardiac Cath"
                        }
                    ],
                    "text": "Cardiac Cath"
                },
                "subject": {
                    "reference": "Patient/eRybav3R8v5FOw67.9aEMCg3",
                    "display": "Cardiology, Ace"
                },
                "participant": [
                    {
                        "type": [
                            {
                                "coding": [
                                    {
                                        "system": "http://hl7.org/fhir/v3/ParticipationType",
                                        "code": "ADM",
                                        "display": "admitter"
                                    }
                                ],
                                "text": "admitter"
                            }
                        ],
                        "individual": {
                            "reference": "Practitioner/ele-ZY2xBro7pcU3Cfkn66Q3",
                            "type": "Practitioner",
                            "display": "Invasive Cardiologist Cupid, MD"
                        }
                    },
                    {
                        "type": [
                            {
                                "coding": [
                                    {
                                        "system": "http://hl7.org/fhir/v3/ParticipationType",
                                        "code": "ATND",
                                        "display": "attender"
                                    }
                                ],
                                "text": "attender"
                            }
                        ],
                        "individual": {
                            "reference": "Practitioner/ele-ZY2xBro7pcU3Cfkn66Q3",
                            "type": "Practitioner",
                            "display": "Invasive Cardiologist Cupid, MD"
                        }
                    }
                ],
                "period": {
                    "start": "2021-03-03T18:15:00Z",
                    "end": "2173-09-27T18:15:00Z"
                },
                "location": [
                    {
                        "location": {
                            "reference": "Location/eAtgd9dXi8.YAqBcUL.G2Hxu43FSSYxrt7D1wy.VjTek3",
                            "display": "EMH Cardiac Catheterization"
                        }
                    },
                    {
                        "location": {
                            "reference": "Location/eAtgd9dXi8.YAqBcUL.G2Hxu43FSSYxrt7D1wy.VjTek3",
                            "display": "EMH Cardiac Catheterization"
                        }
                    },
                    {
                        "location": {
                            "reference": "Location/eQSOrLdbVrMRc68KBcTBG4A3",
                            "display": "Epic Hospital System"
                        }
                    },
                    {
                        "location": {
                            "reference": "Location/eq2cFiYB6Wez6zp5k6Mn9fw3",
                            "display": "CARD CATH"
                        },
                        "physicalType": {
                            "coding": [
                                {
                                    "system": "http://terminology.hl7.org/CodeSystem/location-physical-type",
                                    "code": "ro",
                                    "display": "Room"
                                }
                            ],
                            "text": "Room"
                        }
                    }
                ]
            },
            "search": {
                "mode": "match"
            }
        },
        {
            "link": [
                {
                    "relation": "self",
                    "url": "https://appmarket.epic.com/interconnect-amcurprd-oauth/api/FHIR/R4/Encounter/ebF5x7UOnHsVf1JIGbOO6IA3"
                }
            ],
            "fullUrl": "https://appmarket.epic.com/interconnect-amcurprd-oauth/api/FHIR/R4/Encounter/ebF5x7UOnHsVf1JIGbOO6IA3",
            "resource": {
                "resourceType": "Encounter",
                "id": "ebF5x7UOnHsVf1JIGbOO6IA3",
                "identifier": [
                    {
                        "use": "usual",
                        "system": "urn:oid:1.2.840.114350.1.13.0.1.7.3.698084.8",
                        "value": "34731"
                    }
                ],
                "status": "unknown",
                "class": {
                    "system": "urn:oid:1.2.840.114350.1.72.1.7.7.10.696784.13260",
                    "code": "10",
                    "display": "Surgery Log"
                },
                "type": [
                    {
                        "coding": [
                            {
                                "system": "urn:oid:1.2.840.114350.1.13.0.1.7.10.698084.30",
                                "code": "51",
                                "display": "Surgery"
                            }
                        ],
                        "text": "Surgery"
                    }
                ],
                "subject": {
                    "reference": "Patient/eRybav3R8v5FOw67.9aEMCg3",
                    "display": "Cardiology, Ace"
                },
                "participant": [
                    {
                        "type": [
                            {
                                "coding": [
                                    {
                                        "system": "http://hl7.org/fhir/v3/ParticipationType",
                                        "code": "REF",
                                        "display": "referrer"
                                    }
                                ],
                                "text": "referrer"
                            }
                        ],
                        "individual": {
                            "reference": "Practitioner/eM5CWtq15N0WJeuCet5bJlQ3",
                            "type": "Practitioner",
                            "display": "Physician Family Medicine, MD"
                        }
                    },
                    {
                        "individual": {
                            "reference": "Practitioner/eM5CWtq15N0WJeuCet5bJlQ3",
                            "type": "Practitioner",
                            "display": "Physician Family Medicine, MD"
                        }
                    }
                ],
                "period": {
                    "start": "2021-03-03T18:15:00Z",
                    "end": "2021-03-03T19:15:00Z"
                },
                "location": [
                    {
                        "location": {
                            "reference": "Location/e0RxOmkXIU6AFKYRdkia09vtUDDWeFFNKjE8KHhJcJJ83",
                            "display": "EMH Cardiac Cath Labs"
                        }
                    }
                ],
                "partOf": {
                    "reference": "Encounter/eyINpTHYhKNwE.gc0IrPMgA3",
                    "identifier": {
                        "use": "usual",
                        "system": "urn:oid:1.2.840.114350.1.13.0.1.7.3.698084.8",
                        "value": "34733"
                    },
                    "display": "Hospital Encounter"
                }
            },
            "search": {
                "mode": "match"
            }
        },
        {
            "link": [
                {
                    "relation": "self",
                    "url": "https://appmarket.epic.com/interconnect-amcurprd-oauth/api/FHIR/R4/Encounter/edmh5iHRkqNyzQAEysITrfg3"
                }
            ],
            "fullUrl": "https://appmarket.epic.com/interconnect-amcurprd-oauth/api/FHIR/R4/Encounter/edmh5iHRkqNyzQAEysITrfg3",
            "resource": {
                "resourceType": "Encounter",
                "id": "edmh5iHRkqNyzQAEysITrfg3",
                "identifier": [
                    {
                        "use": "usual",
                        "system": "urn:oid:1.2.840.114350.1.13.0.1.7.3.698084.8",
                        "value": "34376"
                    }
                ],
                "status": "planned",
                "class": {
                    "system": "urn:oid:1.2.840.114350.1.72.1.7.7.10.696784.13260",
                    "code": "2",
                    "display": "Preadmission"
                },
                "type": [
                    {
                        "coding": [
                            {
                                "system": "urn:oid:1.2.840.114350.1.13.0.1.7.10.698084.10110",
                                "code": "106",
                                "display": "Hospital Outpatient Surgery"
                            }
                        ],
                        "text": "Hospital Outpatient Surgery"
                    },
                    {
                        "coding": [
                            {
                                "system": "urn:oid:1.2.840.114350.1.13.0.1.7.10.698084.30",
                                "code": "3",
                                "display": "Hospital Encounter"
                            }
                        ],
                        "text": "Hospital Encounter"
                    }
                ],
                "serviceType": {
                    "coding": [
                        {
                            "system": "urn:oid:1.2.840.114350.1.13.0.1.7.10.698084.18886",
                            "code": "102",
                            "display": "Cardiac Cath"
                        }
                    ],
                    "text": "Cardiac Cath"
                },
                "subject": {
                    "reference": "Patient/eRybav3R8v5FOw67.9aEMCg3",
                    "display": "Cardiology, Ace"
                },
                "participant": [
                    {
                        "type": [
                            {
                                "coding": [
                                    {
                                        "system": "http://hl7.org/fhir/v3/ParticipationType",
                                        "code": "ADM",
                                        "display": "admitter"
                                    }
                                ],
                                "text": "admitter"
                            }
                        ],
                        "individual": {
                            "reference": "Practitioner/ele-ZY2xBro7pcU3Cfkn66Q3",
                            "type": "Practitioner",
                            "display": "Invasive Cardiologist Cupid, MD"
                        }
                    },
                    {
                        "type": [
                            {
                                "coding": [
                                    {
                                        "system": "http://hl7.org/fhir/v3/ParticipationType",
                                        "code": "ATND",
                                        "display": "attender"
                                    }
                                ],
                                "text": "attender"
                            }
                        ],
                        "individual": {
                            "reference": "Practitioner/ele-ZY2xBro7pcU3Cfkn66Q3",
                            "type": "Practitioner",
                            "display": "Invasive Cardiologist Cupid, MD"
                        }
                    },
                    {
                        "extension": [
                            {
                                "valueCodeableConcept": {
                                    "coding": [
                                        {
                                            "system": "urn:oid:1.2.840.114350.1.13.0.1.7.4.698084.18832",
                                            "code": "4",
                                            "display": "Cardiology"
                                        }
                                    ],
                                    "text": "Cardiology"
                                },
                                "url": "http://open.epic.com/FHIR/StructureDefinition/extension/specialty"
                            }
                        ],
                        "type": [
                            {
                                "coding": [
                                    {
                                        "system": "urn:oid:1.2.840.114350.1.13.0.1.7.10.698084.18869",
                                        "code": "Surgeon",
                                        "display": "Surgeon"
                                    }
                                ],
                                "text": "Surgeon"
                            }
                        ],
                        "period": {
                            "start": "2021-03-03T17:04:57Z"
                        },
                        "individual": {
                            "reference": "Practitioner/ele-ZY2xBro7pcU3Cfkn66Q3",
                            "type": "Practitioner",
                            "display": "Invasive Cardiologist Cupid, MD"
                        }
                    }
                ],
                "period": {
                    "start": "2020-11-18T16:00:00Z",
                    "end": "2173-09-27T16:00:00Z"
                },
                "reasonCode": [
                    {
                        "coding": [
                            {
                                "system": "http://snomed.info/sct",
                                "code": "49601007",
                                "display": "Disorder of cardiovascular system (disorder)"
                            }
                        ],
                        "text": "CVD (cardiovascular disease)"
                    }
                ],
                "diagnosis": [
                    {
                        "condition": {
                            "reference": "Condition/eumQVIWaZ-j9dnFU2TfxQMg3",
                            "display": "CVD (cardiovascular disease)"
                        }
                    }
                ],
                "location": [
                    {
                        "location": {
                            "reference": "Location/eAtgd9dXi8.YAqBcUL.G2Hxu43FSSYxrt7D1wy.VjTek3",
                            "display": "EMH Cardiac Catheterization"
                        }
                    },
                    {
                        "location": {
                            "reference": "Location/eAtgd9dXi8.YAqBcUL.G2Hxu43FSSYxrt7D1wy.VjTek3",
                            "display": "EMH Cardiac Catheterization"
                        }
                    },
                    {
                        "location": {
                            "reference": "Location/eQSOrLdbVrMRc68KBcTBG4A3",
                            "display": "Epic Hospital System"
                        }
                    },
                    {
                        "location": {
                            "reference": "Location/eq2cFiYB6Wez6zp5k6Mn9fw3",
                            "display": "CARD CATH"
                        },
                        "physicalType": {
                            "coding": [
                                {
                                    "system": "http://terminology.hl7.org/CodeSystem/location-physical-type",
                                    "code": "ro",
                                    "display": "Room"
                                }
                            ],
                            "text": "Room"
                        }
                    }
                ]
            },
            "search": {
                "mode": "match"
            }
        },
        {
            "link": [
                {
                    "relation": "self",
                    "url": "https://appmarket.epic.com/interconnect-amcurprd-oauth/api/FHIR/R4/Encounter/ee-Uhj8xR1HCG3b0UFr6BLQ3"
                }
            ],
            "fullUrl": "https://appmarket.epic.com/interconnect-amcurprd-oauth/api/FHIR/R4/Encounter/ee-Uhj8xR1HCG3b0UFr6BLQ3",
            "resource": {
                "resourceType": "Encounter",
                "id": "ee-Uhj8xR1HCG3b0UFr6BLQ3",
                "identifier": [
                    {
                        "use": "usual",
                        "system": "urn:oid:1.2.840.114350.1.13.0.1.7.3.698084.8",
                        "value": "34374"
                    }
                ],
                "status": "unknown",
                "class": {
                    "system": "urn:oid:1.2.840.114350.1.72.1.7.7.10.696784.13260",
                    "code": "10",
                    "display": "Surgery Log"
                },
                "type": [
                    {
                        "coding": [
                            {
                                "system": "urn:oid:1.2.840.114350.1.13.0.1.7.10.698084.30",
                                "code": "51",
                                "display": "Surgery"
                            }
                        ],
                        "text": "Surgery"
                    }
                ],
                "subject": {
                    "reference": "Patient/eRybav3R8v5FOw67.9aEMCg3",
                    "display": "Cardiology, Ace"
                },
                "participant": [
                    {
                        "type": [
                            {
                                "coding": [
                                    {
                                        "system": "http://hl7.org/fhir/v3/ParticipationType",
                                        "code": "REF",
                                        "display": "referrer"
                                    }
                                ],
                                "text": "referrer"
                            }
                        ],
                        "individual": {
                            "reference": "Practitioner/eM5CWtq15N0WJeuCet5bJlQ3",
                            "type": "Practitioner",
                            "display": "Physician Family Medicine, MD"
                        }
                    }
                ],
                "period": {
                    "start": "2020-11-18T16:00:00Z",
                    "end": "2020-11-18T18:30:00Z"
                },
                "location": [
                    {
                        "location": {
                            "reference": "Location/e0RxOmkXIU6AFKYRdkia09vtUDDWeFFNKjE8KHhJcJJ83",
                            "display": "EMH Cardiac Cath Labs"
                        }
                    }
                ],
                "partOf": {
                    "reference": "Encounter/edmh5iHRkqNyzQAEysITrfg3",
                    "identifier": {
                        "use": "usual",
                        "system": "urn:oid:1.2.840.114350.1.13.0.1.7.3.698084.8",
                        "value": "34376"
                    },
                    "display": "Hospital Encounter"
                }
            },
            "search": {
                "mode": "match"
            }
        },
        {
            "link": [
                {
                    "relation": "self",
                    "url": "https://appmarket.epic.com/interconnect-amcurprd-oauth/api/FHIR/R4/Encounter/eMPAAckekQt2bYL5.eB5Daw3"
                }
            ],
            "fullUrl": "https://appmarket.epic.com/interconnect-amcurprd-oauth/api/FHIR/R4/Encounter/eMPAAckekQt2bYL5.eB5Daw3",
            "resource": {
                "resourceType": "Encounter",
                "id": "eMPAAckekQt2bYL5.eB5Daw3",
                "identifier": [
                    {
                        "use": "usual",
                        "system": "urn:oid:1.2.840.114350.1.13.0.1.7.3.698084.8",
                        "value": "34373"
                    }
                ],
                "status": "finished",
                "class": {
                    "system": "urn:oid:1.2.840.114350.1.72.1.7.7.10.696784.13260",
                    "code": "13",
                    "display": "Support OP Encounter"
                },
                "type": [
                    {
                        "coding": [
                            {
                                "system": "urn:oid:1.2.840.114350.1.13.0.1.7.10.698084.30",
                                "code": "111",
                                "display": "Orders Only"
                            }
                        ],
                        "text": "Orders Only"
                    }
                ],
                "subject": {
                    "reference": "Patient/eRybav3R8v5FOw67.9aEMCg3",
                    "display": "Cardiology, Ace"
                },
                "period": {
                    "start": "2020-11-18",
                    "end": "2020-11-18"
                },
                "location": [
                    {
                        "location": {
                            "reference": "Location/eAtgd9dXi8.YAqBcUL.G2Hxu43FSSYxrt7D1wy.VjTek3",
                            "display": "EMH Cardiac Catheterization"
                        }
                    }
                ]
            },
            "search": {
                "mode": "match"
            }
        },
        {
            "link": [
                {
                    "relation": "self",
                    "url": "https://appmarket.epic.com/interconnect-amcurprd-oauth/api/FHIR/R4/Encounter/ephfW6qBLhLEz7nlJS.9dpQ3"
                }
            ],
            "fullUrl": "https://appmarket.epic.com/interconnect-amcurprd-oauth/api/FHIR/R4/Encounter/ephfW6qBLhLEz7nlJS.9dpQ3",
            "resource": {
                "resourceType": "Encounter",
                "id": "ephfW6qBLhLEz7nlJS.9dpQ3",
                "identifier": [
                    {
                        "use": "usual",
                        "system": "urn:oid:1.2.840.114350.1.13.0.1.7.3.698084.8",
                        "value": "20167"
                    }
                ],
                "status": "unknown",
                "class": {
                    "system": "urn:oid:1.2.840.114350.1.72.1.7.7.10.696784.13260",
                    "code": "13",
                    "display": "Support OP Encounter"
                },
                "type": [
                    {
                        "coding": [
                            {
                                "system": "urn:oid:1.2.840.114350.1.13.0.1.7.10.698084.30",
                                "code": "40",
                                "display": "Wait List"
                            }
                        ],
                        "text": "Wait List"
                    }
                ],
                "subject": {
                    "reference": "Patient/eRybav3R8v5FOw67.9aEMCg3",
                    "display": "Cardiology, Ace"
                },
                "period": {
                    "start": "2015-11-12",
                    "end": "2015-11-12"
                },
                "location": [
                    {
                        "location": {
                            "reference": "Location/ez20OoEp2pdElGE3rkb33mLSA6xCkzYgIenn-qfWfvC03",
                            "display": "EMH Cardiac Noninvasive"
                        }
                    }
                ]
            },
            "search": {
                "mode": "match"
            }
        },
        {
            "link": [
                {
                    "relation": "self",
                    "url": "https://appmarket.epic.com/interconnect-amcurprd-oauth/api/FHIR/R4/Encounter/egUB2GSx07m8XvwosQ4YCaw3"
                }
            ],
            "fullUrl": "https://appmarket.epic.com/interconnect-amcurprd-oauth/api/FHIR/R4/Encounter/egUB2GSx07m8XvwosQ4YCaw3",
            "resource": {
                "resourceType": "Encounter",
                "id": "egUB2GSx07m8XvwosQ4YCaw3",
                "identifier": [
                    {
                        "use": "usual",
                        "system": "urn:oid:1.2.840.114350.1.13.0.1.7.3.698084.8",
                        "value": "20168"
                    }
                ],
                "status": "in-progress",
                "class": {
                    "system": "urn:oid:1.2.840.114350.1.72.1.7.7.10.696784.13260",
                    "code": "4",
                    "display": "HOV"
                },
                "type": [
                    {
                        "coding": [
                            {
                                "system": "urn:oid:1.2.840.114350.1.13.0.1.7.10.698084.10110",
                                "code": "102",
                                "display": "Outpatient"
                            }
                        ],
                        "text": "Outpatient"
                    },
                    {
                        "coding": [
                            {
                                "system": "urn:oid:1.2.840.114350.1.13.0.1.7.10.698084.30",
                                "code": "3",
                                "display": "Hospital Encounter"
                            }
                        ],
                        "text": "Hospital Encounter"
                    },
                    {
                        "coding": [
                            {
                                "system": "urn:oid:1.2.840.114350.1.13.0.1.7.2.808267",
                                "code": "10008",
                                "display": "Echocardiogram"
                            }
                        ],
                        "text": "Echocardiogram"
                    }
                ],
                "subject": {
                    "reference": "Patient/eRybav3R8v5FOw67.9aEMCg3",
                    "display": "Cardiology, Ace"
                },
                "participant": [
                    {
                        "type": [
                            {
                                "coding": [
                                    {
                                        "system": "http://hl7.org/fhir/v3/ParticipationType",
                                        "code": "REF",
                                        "display": "referrer"
                                    }
                                ],
                                "text": "referrer"
                            }
                        ],
                        "individual": {
                            "reference": "Practitioner/e8q8nmCu5ehjRF8JYikiOmA3",
                            "type": "Practitioner",
                            "display": "Cardiologist Cupid, MD"
                        }
                    },
                    {
                        "period": {
                            "start": "2014-11-12T19:40:00Z",
                            "end": "2014-11-12T20:10:00Z"
                        },
                        "individual": {
                            "display": "EMH CARDIAC ECHO"
                        }
                    }
                ],
                "period": {
                    "start": "2014-11-12T19:38:49Z"
                },
                "account": [
                    {
                        "identifier": {
                            "system": "urn:oid:1.2.840.114350.1.13.0.1.7.2.726582",
                            "value": "1000216"
                        },
                        "display": "CARDIOLOGY,ACE"
                    }
                ],
                "hospitalization": {
                    "extension": [
                        {
                            "valueDateTime": "2014-11-12T19:38:49Z",
                            "url": "http://open.epic.com/FHIR/StructureDefinition/extension/observation-datetime"
                        }
                    ]
                },
                "location": [
                    {
                        "location": {
                            "reference": "Location/ez20OoEp2pdElGE3rkb33mLSA6xCkzYgIenn-qfWfvC03",
                            "display": "EMH Cardiac Noninvasive"
                        }
                    },
                    {
                        "location": {
                            "reference": "Location/ez20OoEp2pdElGE3rkb33mLSA6xCkzYgIenn-qfWfvC03",
                            "display": "EMH Cardiac Noninvasive"
                        }
                    },
                    {
                        "location": {
                            "reference": "Location/eQSOrLdbVrMRc68KBcTBG4A3",
                            "display": "Epic Hospital System"
                        }
                    }
                ]
            },
            "search": {
                "mode": "match"
            }
        },
        {
            "link": [
                {
                    "relation": "self",
                    "url": "https://appmarket.epic.com/interconnect-amcurprd-oauth/api/FHIR/R4/Encounter/ejWMKG4WQQI7dzsPDanUYwQ3"
                }
            ],
            "fullUrl": "https://appmarket.epic.com/interconnect-amcurprd-oauth/api/FHIR/R4/Encounter/ejWMKG4WQQI7dzsPDanUYwQ3",
            "resource": {
                "resourceType": "Encounter",
                "id": "ejWMKG4WQQI7dzsPDanUYwQ3",
                "identifier": [
                    {
                        "use": "usual",
                        "system": "urn:oid:1.2.840.114350.1.13.0.1.7.3.698084.8",
                        "value": "20166"
                    }
                ],
                "status": "in-progress",
                "class": {
                    "system": "urn:oid:1.2.840.114350.1.72.1.7.7.10.696784.13260",
                    "code": "13",
                    "display": "Support OP Encounter"
                },
                "type": [
                    {
                        "coding": [
                            {
                                "system": "urn:oid:1.2.840.114350.1.13.0.1.7.10.698084.30",
                                "code": "117",
                                "display": "Ancillary Orders"
                            }
                        ],
                        "text": "Ancillary Orders"
                    }
                ],
                "subject": {
                    "reference": "Patient/eRybav3R8v5FOw67.9aEMCg3",
                    "display": "Cardiology, Ace"
                },
                "period": {
                    "start": "2014-11-12",
                    "end": "2014-11-12"
                },
                "location": [
                    {
                        "location": {
                            "reference": "Location/eAtgd9dXi8.YAqBcUL.G2Hxu43FSSYxrt7D1wy.VjTek3",
                            "display": "EMH Cardiac Catheterization"
                        }
                    }
                ]
            },
            "search": {
                "mode": "match"
            }
        },
        {
            "link": [
                {
                    "relation": "self",
                    "url": "https://appmarket.epic.com/interconnect-amcurprd-oauth/api/FHIR/R4/Encounter/eVfoD6RCylWSloOJ9W4K9kw3"
                }
            ],
            "fullUrl": "https://appmarket.epic.com/interconnect-amcurprd-oauth/api/FHIR/R4/Encounter/eVfoD6RCylWSloOJ9W4K9kw3",
            "resource": {
                "resourceType": "Encounter",
                "id": "eVfoD6RCylWSloOJ9W4K9kw3",
                "identifier": [
                    {
                        "use": "usual",
                        "system": "urn:oid:1.2.840.114350.1.13.0.1.7.3.698084.8",
                        "value": "14164"
                    }
                ],
                "status": "in-progress",
                "class": {
                    "system": "urn:oid:1.2.840.114350.1.72.1.7.7.10.696784.13260",
                    "code": "13",
                    "display": "Support OP Encounter"
                },
                "type": [
                    {
                        "coding": [
                            {
                                "system": "urn:oid:1.2.840.114350.1.13.0.1.7.10.698084.30",
                                "code": "117",
                                "display": "Ancillary Orders"
                            }
                        ],
                        "text": "Ancillary Orders"
                    }
                ],
                "subject": {
                    "reference": "Patient/eRybav3R8v5FOw67.9aEMCg3",
                    "display": "Cardiology, Ace"
                },
                "period": {
                    "start": "2013-11-09",
                    "end": "2013-11-09"
                },
                "location": [
                    {
                        "location": {
                            "reference": "Location/exUKg2enOl9vT0hdLKWqZikveevrVeZvARhWuNBMlTlc3",
                            "display": "EMC Clinic Lab"
                        }
                    }
                ]
            },
            "search": {
                "mode": "match"
            }
        },
        {
            "link": [
                {
                    "relation": "self",
                    "url": "https://appmarket.epic.com/interconnect-amcurprd-oauth/api/FHIR/R4/Encounter/eF0MlGqbFkFCc2Tf2pD3rrA3"
                }
            ],
            "fullUrl": "https://appmarket.epic.com/interconnect-amcurprd-oauth/api/FHIR/R4/Encounter/eF0MlGqbFkFCc2Tf2pD3rrA3",
            "resource": {
                "resourceType": "Encounter",
                "id": "eF0MlGqbFkFCc2Tf2pD3rrA3",
                "identifier": [
                    {
                        "use": "usual",
                        "system": "urn:oid:1.2.840.114350.1.13.0.1.7.3.698084.8",
                        "value": "14165"
                    }
                ],
                "status": "finished",
                "class": {
                    "system": "urn:oid:1.2.840.114350.1.72.1.7.7.10.696784.13260",
                    "code": "13",
                    "display": "Support OP Encounter"
                },
                "type": [
                    {
                        "coding": [
                            {
                                "system": "urn:oid:1.2.840.114350.1.13.0.1.7.10.698084.30",
                                "code": "111",
                                "display": "Orders Only"
                            }
                        ],
                        "text": "Orders Only"
                    }
                ],
                "subject": {
                    "reference": "Patient/eRybav3R8v5FOw67.9aEMCg3",
                    "display": "Cardiology, Ace"
                },
                "period": {
                    "start": "2013-11-09",
                    "end": "2013-11-09"
                },
                "location": [
                    {
                        "location": {
                            "reference": "Location/e4W4rmGe9QzuGm2Dy4NBqVc0KDe6yGld6HW95UuN-Qd03",
                            "display": "EMC Family Medicine"
                        }
                    }
                ]
            },
            "search": {
                "mode": "match"
            }
        },
        {
            "link": [
                {
                    "relation": "self",
                    "url": "https://appmarket.epic.com/interconnect-amcurprd-oauth/api/FHIR/R4/Encounter/eu3IJQ7zuEuKtnbm3oWOt7A3"
                }
            ],
            "fullUrl": "https://appmarket.epic.com/interconnect-amcurprd-oauth/api/FHIR/R4/Encounter/eu3IJQ7zuEuKtnbm3oWOt7A3",
            "resource": {
                "resourceType": "Encounter",
                "id": "eu3IJQ7zuEuKtnbm3oWOt7A3",
                "identifier": [
                    {
                        "use": "usual",
                        "system": "urn:oid:1.2.840.114350.1.13.0.1.7.3.698084.8",
                        "value": "14169"
                    }
                ],
                "status": "in-progress",
                "class": {
                    "system": "urn:oid:1.2.840.114350.1.72.1.7.7.10.696784.13260",
                    "code": "13",
                    "display": "Support OP Encounter"
                },
                "type": [
                    {
                        "coding": [
                            {
                                "system": "urn:oid:1.2.840.114350.1.13.0.1.7.10.698084.30",
                                "code": "117",
                                "display": "Ancillary Orders"
                            }
                        ],
                        "text": "Ancillary Orders"
                    }
                ],
                "subject": {
                    "reference": "Patient/eRybav3R8v5FOw67.9aEMCg3",
                    "display": "Cardiology, Ace"
                },
                "period": {
                    "start": "2013-10-07",
                    "end": "2013-10-07"
                },
                "location": [
                    {
                        "location": {
                            "reference": "Location/exUKg2enOl9vT0hdLKWqZikveevrVeZvARhWuNBMlTlc3",
                            "display": "EMC Clinic Lab"
                        }
                    }
                ]
            },
            "search": {
                "mode": "match"
            }
        },
        {
            "link": [
                {
                    "relation": "self",
                    "url": "https://appmarket.epic.com/interconnect-amcurprd-oauth/api/FHIR/R4/Encounter/eGYDDrpbX4VRMxh0aETgQ2A3"
                }
            ],
            "fullUrl": "https://appmarket.epic.com/interconnect-amcurprd-oauth/api/FHIR/R4/Encounter/eGYDDrpbX4VRMxh0aETgQ2A3",
            "resource": {
                "resourceType": "Encounter",
                "id": "eGYDDrpbX4VRMxh0aETgQ2A3",
                "identifier": [
                    {
                        "use": "usual",
                        "system": "urn:oid:1.2.840.114350.1.13.0.1.7.3.698084.8",
                        "value": "14170"
                    }
                ],
                "status": "in-progress",
                "class": {
                    "system": "urn:oid:1.2.840.114350.1.72.1.7.7.10.696784.13260",
                    "code": "13",
                    "display": "Support OP Encounter"
                },
                "type": [
                    {
                        "coding": [
                            {
                                "system": "urn:oid:1.2.840.114350.1.13.0.1.7.10.698084.30",
                                "code": "117",
                                "display": "Ancillary Orders"
                            }
                        ],
                        "text": "Ancillary Orders"
                    }
                ],
                "subject": {
                    "reference": "Patient/eRybav3R8v5FOw67.9aEMCg3",
                    "display": "Cardiology, Ace"
                },
                "period": {
                    "start": "2013-10-07",
                    "end": "2013-10-07"
                },
                "location": [
                    {
                        "location": {
                            "reference": "Location/eHZfmM61ykxuObcJ7QXQAqbKm-TU7pO5JHVfeu-3.pK83",
                            "display": "EHS Reference Lab"
                        }
                    }
                ]
            },
            "search": {
                "mode": "match"
            }
        },
        {
            "link": [
                {
                    "relation": "self",
                    "url": "https://appmarket.epic.com/interconnect-amcurprd-oauth/api/FHIR/R4/Encounter/eSpA9T8kwj8cSvafQh2VYmg3"
                }
            ],
            "fullUrl": "https://appmarket.epic.com/interconnect-amcurprd-oauth/api/FHIR/R4/Encounter/eSpA9T8kwj8cSvafQh2VYmg3",
            "resource": {
                "resourceType": "Encounter",
                "id": "eSpA9T8kwj8cSvafQh2VYmg3",
                "identifier": [
                    {
                        "use": "usual",
                        "system": "urn:oid:1.2.840.114350.1.13.0.1.7.3.698084.8",
                        "value": "14171"
                    }
                ],
                "status": "in-progress",
                "class": {
                    "system": "urn:oid:1.2.840.114350.1.72.1.7.7.10.696784.13260",
                    "code": "13",
                    "display": "Support OP Encounter"
                },
                "type": [
                    {
                        "coding": [
                            {
                                "system": "urn:oid:1.2.840.114350.1.13.0.1.7.10.698084.30",
                                "code": "117",
                                "display": "Ancillary Orders"
                            }
                        ],
                        "text": "Ancillary Orders"
                    }
                ],
                "subject": {
                    "reference": "Patient/eRybav3R8v5FOw67.9aEMCg3",
                    "display": "Cardiology, Ace"
                },
                "period": {
                    "start": "2013-10-07",
                    "end": "2013-10-07"
                },
                "location": [
                    {
                        "location": {
                            "reference": "Location/eHZfmM61ykxuObcJ7QXQAqbKm-TU7pO5JHVfeu-3.pK83",
                            "display": "EHS Reference Lab"
                        }
                    }
                ]
            },
            "search": {
                "mode": "match"
            }
        },
        {
            "link": [
                {
                    "relation": "self",
                    "url": "https://appmarket.epic.com/interconnect-amcurprd-oauth/api/FHIR/R4/Encounter/eWgqH4PBNf.Bnm0K4ahz5dg3"
                }
            ],
            "fullUrl": "https://appmarket.epic.com/interconnect-amcurprd-oauth/api/FHIR/R4/Encounter/eWgqH4PBNf.Bnm0K4ahz5dg3",
            "resource": {
                "resourceType": "Encounter",
                "id": "eWgqH4PBNf.Bnm0K4ahz5dg3",
                "identifier": [
                    {
                        "use": "usual",
                        "system": "urn:oid:1.2.840.114350.1.13.0.1.7.3.698084.8",
                        "value": "14172"
                    }
                ],
                "status": "finished",
                "class": {
                    "system": "urn:oid:1.2.840.114350.1.72.1.7.7.10.696784.13260",
                    "code": "13",
                    "display": "Support OP Encounter"
                },
                "type": [
                    {
                        "coding": [
                            {
                                "system": "urn:oid:1.2.840.114350.1.13.0.1.7.10.698084.30",
                                "code": "111",
                                "display": "Orders Only"
                            }
                        ],
                        "text": "Orders Only"
                    }
                ],
                "subject": {
                    "reference": "Patient/eRybav3R8v5FOw67.9aEMCg3",
                    "display": "Cardiology, Ace"
                },
                "period": {
                    "start": "2013-10-07",
                    "end": "2013-10-07"
                },
                "location": [
                    {
                        "location": {
                            "reference": "Location/e4W4rmGe9QzuGm2Dy4NBqVc0KDe6yGld6HW95UuN-Qd03",
                            "display": "EMC Family Medicine"
                        }
                    }
                ]
            },
            "search": {
                "mode": "match"
            }
        },
        {
            "link": [
                {
                    "relation": "self",
                    "url": "https://appmarket.epic.com/interconnect-amcurprd-oauth/api/FHIR/R4/Encounter/edo3X874E.sdEW067FvJAAA3"
                }
            ],
            "fullUrl": "https://appmarket.epic.com/interconnect-amcurprd-oauth/api/FHIR/R4/Encounter/edo3X874E.sdEW067FvJAAA3",
            "resource": {
                "resourceType": "Encounter",
                "id": "edo3X874E.sdEW067FvJAAA3",
                "identifier": [
                    {
                        "use": "usual",
                        "system": "urn:oid:1.2.840.114350.1.13.0.1.7.3.698084.8",
                        "value": "14176"
                    }
                ],
                "status": "unknown",
                "class": {
                    "system": "urn:oid:1.2.840.114350.1.72.1.7.7.10.696784.13260",
                    "code": "13",
                    "display": "Support OP Encounter"
                },
                "subject": {
                    "reference": "Patient/eRybav3R8v5FOw67.9aEMCg3",
                    "display": "Cardiology, Ace"
                },
                "period": {
                    "start": "2011-02-22",
                    "end": "2011-02-22"
                }
            },
            "search": {
                "mode": "match"
            }
        },
        {
            "link": [
                {
                    "relation": "self",
                    "url": "https://appmarket.epic.com/interconnect-amcurprd-oauth/api/FHIR/R4/Encounter/e5zWbixYgfRLFS5tWw8QWNA3"
                }
            ],
            "fullUrl": "https://appmarket.epic.com/interconnect-amcurprd-oauth/api/FHIR/R4/Encounter/e5zWbixYgfRLFS5tWw8QWNA3",
            "resource": {
                "resourceType": "Encounter",
                "id": "e5zWbixYgfRLFS5tWw8QWNA3",
                "identifier": [
                    {
                        "use": "usual",
                        "system": "urn:oid:1.2.840.114350.1.13.0.1.7.3.698084.8",
                        "value": "14177"
                    }
                ],
                "status": "unknown",
                "class": {
                    "system": "urn:oid:1.2.840.114350.1.72.1.7.7.10.696784.13260",
                    "code": "13",
                    "display": "Support OP Encounter"
                },
                "subject": {
                    "reference": "Patient/eRybav3R8v5FOw67.9aEMCg3",
                    "display": "Cardiology, Ace"
                },
                "period": {
                    "start": "2011-02-22",
                    "end": "2011-02-22"
                }
            },
            "search": {
                "mode": "match"
            }
        },
        {
            "link": [
                {
                    "relation": "self",
                    "url": "https://appmarket.epic.com/interconnect-amcurprd-oauth/api/FHIR/R4/Patient/eRybav3R8v5FOw67.9aEMCg3"
                }
            ],
            "fullUrl": "https://appmarket.epic.com/interconnect-amcurprd-oauth/api/FHIR/R4/Patient/eRybav3R8v5FOw67.9aEMCg3",
            "resource": {
                "resourceType": "Patient",
                "id": "eRybav3R8v5FOw67.9aEMCg3",
                "extension": [
                    {
                        "extension": [
                            {
                                "valueCoding": {
                                    "system": "urn:oid:2.16.840.1.113883.6.238",
                                    "code": "2106-3",
                                    "display": "White"
                                },
                                "url": "ombCategory"
                            },
                            {
                                "valueString": "White",
                                "url": "text"
                            }
                        ],
                        "url": "http://hl7.org/fhir/us/core/StructureDefinition/us-core-race"
                    },
                    {
                        "extension": [
                            {
                                "valueCoding": {
                                    "system": "urn:oid:2.16.840.1.113883.6.238",
                                    "code": "2186-5",
                                    "display": "Not Hispanic or Latino"
                                },
                                "url": "ombCategory"
                            },
                            {
                                "valueString": "Not Hispanic or Latino",
                                "url": "text"
                            }
                        ],
                        "url": "http://hl7.org/fhir/us/core/StructureDefinition/us-core-ethnicity"
                    },
                    {
                        "valueCodeableConcept": {
                            "coding": [
                                {
                                    "system": "urn:oid:1.2.840.114350.1.13.0.1.7.10.698084.130.657370.19999000",
                                    "code": "male",
                                    "display": "male"
                                }
                            ]
                        },
                        "url": "http://open.epic.com/FHIR/StructureDefinition/extension/legal-sex"
                    },
                    {
                        "valueCodeableConcept": {
                            "coding": [
                                {
                                    "system": "urn:oid:1.2.840.114350.1.13.0.1.7.10.698084.130.657370.19999000",
                                    "code": "male",
                                    "display": "male"
                                }
                            ]
                        },
                        "url": "http://open.epic.com/FHIR/StructureDefinition/extension/sex-for-clinical-use"
                    },
                    {
                        "valueCode": "M",
                        "url": "http://hl7.org/fhir/us/core/StructureDefinition/us-core-birthsex"
                    }
                ],
                "identifier": [
                    {
                        "use": "usual",
                        "system": "urn:oid:2.16.840.1.113883.4.1",
                        "value": "172-92-9860"
                    },
                    {
                        "use": "usual",
                        "type": {
                            "text": "CEID"
                        },
                        "system": "urn:epic:apporchard.curprod",
                        "value": "AO1D89S7NBZ2B2Q"
                    },
                    {
                        "use": "usual",
                        "type": {
                            "text": "EPIC"
                        },
                        "system": "urn:oid:1.2.840.114350.1.1",
                        "value": "E3429"
                    },
                    {
                        "use": "usual",
                        "type": {
                            "text": "EXTERNAL"
                        },
                        "system": "urn:oid:1.2.840.114350.1.13.0.1.7.2.698084",
                        "value": "Z5259"
                    },
                    {
                        "use": "usual",
                        "type": {
                            "text": "FHIR"
                        },
                        "system": "http://open.epic.com/FHIR/StructureDefinition/patient-dstu2-fhir-id",
                        "value": "THHl.DVoTuBw9ihnRY9Trhr0dPlK7LQyp.KTRiJgl3TAB"
                    },
                    {
                        "use": "usual",
                        "type": {
                            "text": "FHIR STU3"
                        },
                        "system": "http://open.epic.com/FHIR/StructureDefinition/patient-fhir-id",
                        "value": "eRybav3R8v5FOw67.9aEMCg3"
                    },
                    {
                        "use": "usual",
                        "type": {
                            "text": "INTERNAL"
                        },
                        "system": "urn:oid:1.2.840.114350.1.13.0.1.7.2.698084",
                        "value": "     Z5259"
                    },
                    {
                        "use": "usual",
                        "type": {
                            "text": "MRN"
                        },
                        "system": "urn:oid:1.2.840.114350.1.13.0.1.7.5.737384.14",
                        "value": "203183"
                    },
                    {
                        "use": "usual",
                        "type": {
                            "text": "MYCHARTLOGIN"
                        },
                        "system": "urn:oid:1.2.840.114350.1.13.0.1.7.3.878082.110",
                        "value": "CARDIOACE"
                    },
                    {
                        "use": "usual",
                        "type": {
                            "text": "WPRINTERNAL"
                        },
                        "system": "urn:oid:1.2.840.114350.1.13.0.1.7.2.878082",
                        "value": "94"
                    }
                ],
                "active": true,
                "name": [
                    {
                        "use": "official",
                        "text": "Ace Cardiology",
                        "family": "Cardiology",
                        "given": [
                            "Ace"
                        ]
                    },
                    {
                        "use": "usual",
                        "text": "Ace Cardiology",
                        "family": "Cardiology",
                        "given": [
                            "Ace"
                        ]
                    }
                ],
                "telecom": [
                    {
                        "system": "phone",
                        "value": "608-555-3120",
                        "use": "home"
                    },
                    {
                        "system": "phone",
                        "value": "608-550-3120",
                        "use": "work"
                    }
                ],
                "gender": "male",
                "birthDate": "1960-01-25",
                "deceasedBoolean": false,
                "address": [
                    {
                        "use": "home",
                        "line": [
                            "3120 Maple Street"
                        ],
                        "city": "Madison",
                        "state": "WI",
                        "postalCode": "53711",
                        "country": "US"
                    }
                ],
                "maritalStatus": {
                    "text": "Married"
                },
                "contact": [
                    {
                        "relationship": [
                            {
                                "coding": [
                                    {
                                        "system": "http://terminology.hl7.org/CodeSystem/v2-0131",
                                        "code": "C",
                                        "display": "Emergency Contact"
                                    },
                                    {
                                        "system": "http://terminology.hl7.org/CodeSystem/v2-0131",
                                        "code": "N",
                                        "display": "Next-of-Kin"
                                    },
                                    {
                                        "system": "urn:oid:1.2.840.114350.1.13.0.1.7.4.827665.1000",
                                        "code": "14",
                                        "display": "Sister"
                                    }
                                ],
                                "text": "Sister"
                            }
                        ],
                        "name": {
                            "use": "usual",
                            "text": "Cardiology,Margaret"
                        },
                        "telecom": [
                            {
                                "system": "phone",
                                "value": "608-555-3120",
                                "use": "home"
                            }
                        ]
                    },
                    {
                        "relationship": [
                            {
                                "coding": [
                                    {
                                        "system": "http://terminology.hl7.org/CodeSystem/v2-0131",
                                        "code": "E",
                                        "display": "Employer"
                                    }
                                ]
                            }
                        ],
                        "organization": {
                            "display": "Other"
                        }
                    }
                ],
                "communication": [
                    {
                        "language": {
                            "coding": [
                                {
                                    "system": "urn:ietf:bcp:47",
                                    "code": "en",
                                    "display": "English"
                                }
                            ],
                            "text": "English"
                        },
                        "preferred": true
                    }
                ],
                "generalPractitioner": [
                    {
                        "reference": "Practitioner/eM5CWtq15N0WJeuCet5bJlQ3",
                        "type": "Practitioner",
                        "display": "Physician Family Medicine, MD"
                    }
                ],
                "managingOrganization": {
                    "reference": "Organization/enRyWnSP963FYDpoks4NHOA3",
                    "display": "Epic Hospital System"
                }
            },
            "search": {
                "mode": "include"
            }
        },
        {
            "link": [
                {
                    "relation": "self",
                    "url": "https://appmarket.epic.com/interconnect-amcurprd-oauth/api/FHIR/R4/Encounter/edmh5iHRkqNyzQAEysITrfg3"
                }
            ],
            "fullUrl": "https://appmarket.epic.com/interconnect-amcurprd-oauth/api/FHIR/R4/Encounter/edmh5iHRkqNyzQAEysITrfg3",
            "resource": {
                "resourceType": "Encounter",
                "id": "edmh5iHRkqNyzQAEysITrfg3",
                "identifier": [
                    {
                        "use": "usual",
                        "system": "urn:oid:1.2.840.114350.1.13.0.1.7.3.698084.8",
                        "value": "34376"
                    }
                ],
                "status": "planned",
                "class": {
                    "system": "urn:oid:1.2.840.114350.1.72.1.7.7.10.696784.13260",
                    "code": "2",
                    "display": "Preadmission"
                },
                "type": [
                    {
                        "coding": [
                            {
                                "system": "urn:oid:1.2.840.114350.1.13.0.1.7.10.698084.10110",
                                "code": "106",
                                "display": "Hospital Outpatient Surgery"
                            }
                        ],
                        "text": "Hospital Outpatient Surgery"
                    },
                    {
                        "coding": [
                            {
                                "system": "urn:oid:1.2.840.114350.1.13.0.1.7.10.698084.30",
                                "code": "3",
                                "display": "Hospital Encounter"
                            }
                        ],
                        "text": "Hospital Encounter"
                    }
                ],
                "serviceType": {
                    "coding": [
                        {
                            "system": "urn:oid:1.2.840.114350.1.13.0.1.7.10.698084.18886",
                            "code": "102",
                            "display": "Cardiac Cath"
                        }
                    ],
                    "text": "Cardiac Cath"
                },
                "subject": {
                    "reference": "Patient/eRybav3R8v5FOw67.9aEMCg3",
                    "display": "Cardiology, Ace"
                },
                "participant": [
                    {
                        "type": [
                            {
                                "coding": [
                                    {
                                        "system": "http://hl7.org/fhir/v3/ParticipationType",
                                        "code": "ADM",
                                        "display": "admitter"
                                    }
                                ],
                                "text": "admitter"
                            }
                        ],
                        "individual": {
                            "reference": "Practitioner/ele-ZY2xBro7pcU3Cfkn66Q3",
                            "type": "Practitioner",
                            "display": "Invasive Cardiologist Cupid, MD"
                        }
                    },
                    {
                        "type": [
                            {
                                "coding": [
                                    {
                                        "system": "http://hl7.org/fhir/v3/ParticipationType",
                                        "code": "ATND",
                                        "display": "attender"
                                    }
                                ],
                                "text": "attender"
                            }
                        ],
                        "individual": {
                            "reference": "Practitioner/ele-ZY2xBro7pcU3Cfkn66Q3",
                            "type": "Practitioner",
                            "display": "Invasive Cardiologist Cupid, MD"
                        }
                    },
                    {
                        "extension": [
                            {
                                "valueCodeableConcept": {
                                    "coding": [
                                        {
                                            "system": "urn:oid:1.2.840.114350.1.13.0.1.7.4.698084.18832",
                                            "code": "4",
                                            "display": "Cardiology"
                                        }
                                    ],
                                    "text": "Cardiology"
                                },
                                "url": "http://open.epic.com/FHIR/StructureDefinition/extension/specialty"
                            }
                        ],
                        "type": [
                            {
                                "coding": [
                                    {
                                        "system": "urn:oid:1.2.840.114350.1.13.0.1.7.10.698084.18869",
                                        "code": "Surgeon",
                                        "display": "Surgeon"
                                    }
                                ],
                                "text": "Surgeon"
                            }
                        ],
                        "period": {
                            "start": "2021-03-03T17:04:57Z"
                        },
                        "individual": {
                            "reference": "Practitioner/ele-ZY2xBro7pcU3Cfkn66Q3",
                            "type": "Practitioner",
                            "display": "Invasive Cardiologist Cupid, MD"
                        }
                    }
                ],
                "period": {
                    "start": "2020-11-18T16:00:00Z",
                    "end": "2173-09-27T16:00:00Z"
                },
                "reasonCode": [
                    {
                        "coding": [
                            {
                                "system": "http://snomed.info/sct",
                                "code": "49601007",
                                "display": "Disorder of cardiovascular system (disorder)"
                            }
                        ],
                        "text": "CVD (cardiovascular disease)"
                    }
                ],
                "diagnosis": [
                    {
                        "condition": {
                            "reference": "Condition/eumQVIWaZ-j9dnFU2TfxQMg3",
                            "display": "CVD (cardiovascular disease)"
                        }
                    }
                ],
                "location": [
                    {
                        "location": {
                            "reference": "Location/eAtgd9dXi8.YAqBcUL.G2Hxu43FSSYxrt7D1wy.VjTek3",
                            "display": "EMH Cardiac Catheterization"
                        }
                    },
                    {
                        "location": {
                            "reference": "Location/eAtgd9dXi8.YAqBcUL.G2Hxu43FSSYxrt7D1wy.VjTek3",
                            "display": "EMH Cardiac Catheterization"
                        }
                    },
                    {
                        "location": {
                            "reference": "Location/eQSOrLdbVrMRc68KBcTBG4A3",
                            "display": "Epic Hospital System"
                        }
                    },
                    {
                        "location": {
                            "reference": "Location/eq2cFiYB6Wez6zp5k6Mn9fw3",
                            "display": "CARD CATH"
                        },
                        "physicalType": {
                            "coding": [
                                {
                                    "system": "http://terminology.hl7.org/CodeSystem/location-physical-type",
                                    "code": "ro",
                                    "display": "Room"
                                }
                            ],
                            "text": "Room"
                        }
                    }
                ]
            },
            "search": {
                "mode": "include"
            }
        },
        {
            "link": [
                {
                    "relation": "self",
                    "url": "https://appmarket.epic.com/interconnect-amcurprd-oauth/api/FHIR/R4/Condition/eumQVIWaZ-j9dnFU2TfxQMg3"
                }
            ],
            "fullUrl": "https://appmarket.epic.com/interconnect-amcurprd-oauth/api/FHIR/R4/Condition/eumQVIWaZ-j9dnFU2TfxQMg3",
            "resource": {
                "resourceType": "Condition",
                "id": "eumQVIWaZ-j9dnFU2TfxQMg3",
                "clinicalStatus": {
                    "coding": [
                        {
                            "system": "http://terminology.hl7.org/CodeSystem/condition-clinical",
                            "version": "4.0.0",
                            "code": "active",
                            "display": "Active"
                        }
                    ],
                    "text": "Active"
                },
                "verificationStatus": {
                    "coding": [
                        {
                            "system": "http://terminology.hl7.org/CodeSystem/condition-ver-status",
                            "version": "4.0.0",
                            "code": "confirmed",
                            "display": "Confirmed"
                        }
                    ],
                    "text": "Confirmed"
                },
                "category": [
                    {
                        "coding": [
                            {
                                "system": "http://terminology.hl7.org/CodeSystem/condition-category",
                                "code": "problem-list-item",
                                "display": "Problem List Item"
                            }
                        ],
                        "text": "Problem List Item"
                    }
                ],
                "code": {
                    "coding": [
                        {
                            "system": "http://hl7.org/fhir/sid/icd-10-cm",
                            "code": "I25.10"
                        },
                        {
                            "system": "http://snomed.info/sct",
                            "code": "49601007"
                        }
                    ],
                    "text": "CVD (cardiovascular disease)"
                },
                "subject": {
                    "reference": "Patient/eRybav3R8v5FOw67.9aEMCg3",
                    "display": "Cardiology, Ace"
                },
                "onsetPeriod": {
                    "start": "2020-11-18",
                    "end": "2020-11-18"
                },
                "recordedDate": "2020-11-18",
                "note": [
                    {
                        "text": "Added automatically from request for surgery 1548\r\n"
                    }
                ]
            },
            "search": {
                "mode": "include"
            }
        },
        {
            "link": [
                {
                    "relation": "self",
                    "url": "https://appmarket.epic.com/interconnect-amcurprd-oauth/api/FHIR/R4/Encounter/eyINpTHYhKNwE.gc0IrPMgA3"
                }
            ],
            "fullUrl": "https://appmarket.epic.com/interconnect-amcurprd-oauth/api/FHIR/R4/Encounter/eyINpTHYhKNwE.gc0IrPMgA3",
            "resource": {
                "resourceType": "Encounter",
                "id": "eyINpTHYhKNwE.gc0IrPMgA3",
                "identifier": [
                    {
                        "use": "usual",
                        "system": "urn:oid:1.2.840.114350.1.13.0.1.7.3.698084.8",
                        "value": "34733"
                    }
                ],
                "status": "planned",
                "class": {
                    "system": "urn:oid:1.2.840.114350.1.72.1.7.7.10.696784.13260",
                    "code": "2",
                    "display": "Preadmission"
                },
                "type": [
                    {
                        "coding": [
                            {
                                "system": "urn:oid:1.2.840.114350.1.13.0.1.7.10.698084.10110",
                                "code": "108",
                                "display": "Surgery Admit"
                            }
                        ],
                        "text": "Surgery Admit"
                    },
                    {
                        "coding": [
                            {
                                "system": "urn:oid:1.2.840.114350.1.13.0.1.7.10.698084.30",
                                "code": "3",
                                "display": "Hospital Encounter"
                            }
                        ],
                        "text": "Hospital Encounter"
                    }
                ],
                "serviceType": {
                    "coding": [
                        {
                            "system": "urn:oid:1.2.840.114350.1.13.0.1.7.10.698084.18886",
                            "code": "102",
                            "display": "Cardiac Cath"
                        }
                    ],
                    "text": "Cardiac Cath"
                },
                "subject": {
                    "reference": "Patient/eRybav3R8v5FOw67.9aEMCg3",
                    "display": "Cardiology, Ace"
                },
                "participant": [
                    {
                        "type": [
                            {
                                "coding": [
                                    {
                                        "system": "http://hl7.org/fhir/v3/ParticipationType",
                                        "code": "ADM",
                                        "display": "admitter"
                                    }
                                ],
                                "text": "admitter"
                            }
                        ],
                        "individual": {
                            "reference": "Practitioner/ele-ZY2xBro7pcU3Cfkn66Q3",
                            "type": "Practitioner",
                            "display": "Invasive Cardiologist Cupid, MD"
                        }
                    },
                    {
                        "type": [
                            {
                                "coding": [
                                    {
                                        "system": "http://hl7.org/fhir/v3/ParticipationType",
                                        "code": "ATND",
                                        "display": "attender"
                                    }
                                ],
                                "text": "attender"
                            }
                        ],
                        "individual": {
                            "reference": "Practitioner/ele-ZY2xBro7pcU3Cfkn66Q3",
                            "type": "Practitioner",
                            "display": "Invasive Cardiologist Cupid, MD"
                        }
                    }
                ],
                "period": {
                    "start": "2021-03-03T18:15:00Z",
                    "end": "2173-09-27T18:15:00Z"
                },
                "location": [
                    {
                        "location": {
                            "reference": "Location/eAtgd9dXi8.YAqBcUL.G2Hxu43FSSYxrt7D1wy.VjTek3",
                            "display": "EMH Cardiac Catheterization"
                        }
                    },
                    {
                        "location": {
                            "reference": "Location/eAtgd9dXi8.YAqBcUL.G2Hxu43FSSYxrt7D1wy.VjTek3",
                            "display": "EMH Cardiac Catheterization"
                        }
                    },
                    {
                        "location": {
                            "reference": "Location/eQSOrLdbVrMRc68KBcTBG4A3",
                            "display": "Epic Hospital System"
                        }
                    },
                    {
                        "location": {
                            "reference": "Location/eq2cFiYB6Wez6zp5k6Mn9fw3",
                            "display": "CARD CATH"
                        },
                        "physicalType": {
                            "coding": [
                                {
                                    "system": "http://terminology.hl7.org/CodeSystem/location-physical-type",
                                    "code": "ro",
                                    "display": "Room"
                                }
                            ],
                            "text": "Room"
                        }
                    }
                ]
            },
            "search": {
                "mode": "include"
            }
        }
    ]
}