{
    "resourceType": "Bundle",
    "type": "searchset",
    "total": 1,
    "link": [
        {
            "relation": "self",
            "url": "https://appmarket.epic.com/interconnect-amcurprd-oauth/api/FHIR/R4/Encounter?_include=Encounter:condition&_include=Encounter:episodeOfCare&_include=Encounter:partOf&_include=Encounter:subject&_format=json&patient=e0k0Sfj.dePsucAEP0HkUaA3"
        }
    ],
    "entry": [
        {
            "link": [
                {
                    "relation": "self",
                    "url": "https://appmarket.epic.com/interconnect-amcurprd-oauth/api/FHIR/R4/Encounter/eMH4aGvp6.Vy6cMOlb0V..w3"
                }
            ],
            "fullUrl": "https://appmarket.epic.com/interconnect-amcurprd-oauth/api/FHIR/R4/Encounter/eMH4aGvp6.Vy6cMOlb0V..w3",
            "resource": {
                "resourceType": "Encounter",
                "id": "eMH4aGvp6.Vy6cMOlb0V..w3",
                "identifier": [
                    {
                        "use": "usual",
                        "system": "urn:oid:1.2.840.114350.1.13.0.1.7.3.698084.8",
                        "value": "30560"
                    }
                ],
                "status": "finished",
                "class": {
                    "system": "urn:oid:1.2.840.114350.1.72.1.7.7.10.696784.13260",
                    "code": "13",
                    "display": "Support OP Encounter"
                },
                "type": [
                    {
                        "coding": [
                            {
                                "system": "urn:oid:1.2.840.114350.1.13.0.1.7.10.698084.30",
                                "code": "62",
                                "display": "E-Visit"
                            }
                        ],
                        "text": "E-Visit"
                    }
                ],
                "subject": {
                    "reference": "Patient/e0k0Sfj.dePsucAEP0HkUaA3",
                    "display": "Beacon, Abbey"
                },
                "episodeOfCare": [
                    {
                        "reference": "EpisodeOfCare/es.ExNrH-.bp9lwh8dUkf0A3",
                        "type": "EpisodeOfCare",
                        "display": "BMT"
                    },
                    {
                        "reference": "EpisodeOfCare/euzezZY6lHZZRR9flnkcRJQ3",
                        "type": "EpisodeOfCare",
                        "display": "ONCOLOGY TREATMENT"
                    }
                ],
                "period": {
                    "start": "2020-03-31",
                    "end": "2020-03-31"
                },
                "location": [
                    {
                        "location": {
                            "reference": "Location/eIFJdH1hm1mbcKtakI4NHq27tpuUFeCGavbGSaa6v1os3",
                            "display": "EMH Oncology Clinic"
                        }
                    }
                ]
            },
            "search": {
                "mode": "match"
            }
        },
        {
            "link": [
                {
                    "relation": "self",
                    "url": "https://appmarket.epic.com/interconnect-amcurprd-oauth/api/FHIR/R4/Patient/e0k0Sfj.dePsucAEP0HkUaA3"
                }
            ],
            "fullUrl": "https://appmarket.epic.com/interconnect-amcurprd-oauth/api/FHIR/R4/Patient/e0k0Sfj.dePsucAEP0HkUaA3",
            "resource": {
                "resourceType": "Patient",
                "id": "e0k0Sfj.dePsucAEP0HkUaA3",
                "extension": [
                    {
                        "extension": [
                            {
                                "valueCoding": {
                                    "system": "urn:oid:2.16.840.1.113883.6.238",
                                    "code": "2054-5",
                                    "display": "Black or African American"
                                },
                                "url": "ombCategory"
                            },
                            {
                                "valueString": "Black or African American",
                                "url": "text"
                            }
                        ],
                        "url": "http://hl7.org/fhir/us/core/StructureDefinition/us-core-race"
                    },
                    {
                        "extension": [
                            {
                                "valueString": "Unknown",
                                "url": "text"
                            }
                        ],
                        "url": "http://hl7.org/fhir/us/core/StructureDefinition/us-core-ethnicity"
                    },
                    {
                        "valueCodeableConcept": {
                            "coding": [
                                {
                                    "system": "urn:oid:1.2.840.114350.1.13.0.1.7.10.698084.130.657370.19999000",
                                    "code": "female",
                                    "display": "female"
                                }
                            ]
                        },
                        "url": "http://open.epic.com/FHIR/StructureDefinition/extension/legal-sex"
                    },
                    {
                        "valueCodeableConcept": {
                            "coding": [
                                {
                                    "system": "urn:oid:1.2.840.114350.1.13.0.1.7.10.698084.130.657370.19999000",
                                    "code": "female",
                                    "display": "female"
                                }
                            ]
                        },
                        "url": "http://open.epic.com/FHIR/StructureDefinition/extension/sex-for-clinical-use"
                    },
                    {
                        "valueCode": "F",
                        "url": "http://hl7.org/fhir/us/core/StructureDefinition/us-core-birthsex"
                    }
                ],
                "identifier": [
                    {
                        "use": "usual",
                        "type": {
                            "text": "CEID"
                        },
                        "system": "urn:epic:apporchard.curprod",
                        "value": "AO1RTRG342MV676"
                    },
                    {
                        "use": "usual",
                        "type": {
                            "text": "EPIC"
                        },
                        "system": "urn:oid:1.2.840.114350.1.1",
                        "value": "E3847"
                    },
                    {
                        "use": "usual",
                        "type": {
                            "text": "EXTERNAL"
                        },
                        "system": "urn:oid:1.2.840.114350.1.13.0.1.7.2.698084",
                        "value": "Z5711"
                    },
                    {
                        "use": "usual",
                        "type": {
                            "text": "FHIR"
                        },
                        "system": "http://open.epic.com/FHIR/StructureDefinition/patient-dstu2-fhir-id",
                        "value": "T-MsvRhFPzBmzGa03dKPAnCjzrsgwpWVWpeCJQ85PlWoB"
                    },
                    {
                        "use": "usual",
                        "type": {
                            "text": "FHIR STU3"
                        },
                        "system": "http://open.epic.com/FHIR/StructureDefinition/patient-fhir-id",
                        "value": "e0k0Sfj.dePsucAEP0HkUaA3"
                    },
                    {
                        "use": "usual",
                        "type": {
                            "text": "INTERNAL"
                        },
                        "system": "urn:oid:1.2.840.114350.1.13.0.1.7.2.698084",
                        "value": "     Z5711"
                    },
                    {
                        "use": "usual",
                        "type": {
                            "text": "MRN"
                        },
                        "system": "urn:oid:1.2.840.114350.1.13.0.1.7.5.737384.14",
                        "value": "203582"
                    },
                    {
                        "use": "usual",
                        "type": {
                            "text": "WPRINTERNAL"
                        },
                        "system": "urn:oid:1.2.840.114350.1.13.0.1.7.2.878082",
                        "value": "1220"
                    }
                ],
                "active": true,
                "name": [
                    {
                        "use": "official",
                        "text": "Abbey Beacon",
                        "family": "Beacon",
                        "given": [
                            "Abbey"
                        ]
                    },
                    {
                        "use": "usual",
                        "text": "Abbey Beacon",
                        "family": "Beacon",
                        "given": [
                            "Abbey"
                        ]
                    }
                ],
                "telecom": [
                    {
                        "system": "phone",
                        "value": "608-555-9000",
                        "use": "home"
                    },
                    {
                        "system": "phone",
                        "value": "608-555-7000",
                        "use": "mobile"
                    }
                ],
                "gender": "female",
                "birthDate": "1986-09-21",
                "deceasedBoolean": false,
                "address": [
                    {
                        "use": "home",
                        "line": [
                            "3355 Maple Street"
                        ],
                        "city": "Madison",
                        "state": "WI",
                        "postalCode": "53711",
                        "country": "US"
                    }
                ],
                "maritalStatus": {
                    "text": "Single"
                },
                "communication": [
                    {
                        "language": {
                            "coding": [
                                {
                                    "system": "urn:ietf:bcp:47",
                                    "code": "en",
                                    "display": "English"
                                }
                            ],
                            "text": "English"
                        },
                        "preferred": true
                    }
                ],
                "managingOrganization": {
                    "reference": "Organization/enRyWnSP963FYDpoks4NHOA3",
                    "display": "Epic Hospital System"
                }
            },
            "search": {
                "mode": "include"
            }
        },
        {
            "link": [
                {
                    "relation": "self",
                    "url": "https://appmarket.epic.com/interconnect-amcurprd-oauth/api/FHIR/R4/EpisodeOfCare/es.ExNrH-.bp9lwh8dUkf0A3"
                }
            ],
            "fullUrl": "https://appmarket.epic.com/interconnect-amcurprd-oauth/api/FHIR/R4/EpisodeOfCare/es.ExNrH-.bp9lwh8dUkf0A3",
            "resource": {
                "resourceType": "EpisodeOfCare",
                "id": "es.ExNrH-.bp9lwh8dUkf0A3",
                "extension": [
                    {
                        "valueString": "BMT",
                        "url": "http://open.epic.com/FHIR/StructureDefinition/extension/episode-name"
                    }
                ],
                "status": "active",
                "type": [
                    {
                        "coding": [
                            {
                                "system": "urn:oid:1.2.840.114350.1.13.0.1.7.2.726668",
                                "code": "2050001100",
                                "display": "BLOOD AND MARROW TRANSPLANT"
                            },
                            {
                                "system": "urn:oid:1.2.840.114350.1.13.0.1.7.4.726668.130",
                                "code": "11",
                                "display": "Blood and Marrow Transplant"
                            }
                        ],
                        "text": "BLOOD AND MARROW TRANSPLANT"
                    }
                ],
                "diagnosis": [
                    {
                        "condition": {
                            "reference": "Condition/e-QRP06WZlU46Y1cUAoTuEg3",
                            "type": "Condition",
                            "display": "Multiple myeloma (CMS/HCC)"
                        }
                    }
                ],
                "patient": {
                    "reference": "Patient/e0k0Sfj.dePsucAEP0HkUaA3",
                    "type": "Patient",
                    "display": "Beacon, Abbey"
                },
                "period": {
                    "start": "2016-01-04"
                },
                "team": [
                    {
                        "reference": "CareTeam/e7OMjntZG6aNjhoZxFN-cYPyFoOzWw9A-YFtyulTrjf43",
                        "type": "CareTeam"
                    }
                ]
            },
            "search": {
                "mode": "include"
            }
        },
        {
            "link": [
                {
                    "relation": "self",
                    "url": "https://appmarket.epic.com/interconnect-amcurprd-oauth/api/FHIR/R4/EpisodeOfCare/euzezZY6lHZZRR9flnkcRJQ3"
                }
            ],
            "fullUrl": "https://appmarket.epic.com/interconnect-amcurprd-oauth/api/FHIR/R4/EpisodeOfCare/euzezZY6lHZZRR9flnkcRJQ3",
            "resource": {
                "resourceType": "EpisodeOfCare",
                "id": "euzezZY6lHZZRR9flnkcRJQ3",
                "extension": [
                    {
                        "valueString": "ONCOLOGY TREATMENT",
                        "url": "http://open.epic.com/FHIR/StructureDefinition/extension/episode-name"
                    }
                ],
                "status": "active",
                "type": [
                    {
                        "coding": [
                            {
                                "system": "urn:oid:1.2.840.114350.1.13.0.1.7.2.726668",
                                "code": "10",
                                "display": "ONCOLOGY TREATMENT"
                            },
                            {
                                "system": "urn:oid:1.2.840.114350.1.13.0.1.7.4.726668.130",
                                "code": "18",
                                "display": "Beacon - Treatment Plan"
                            }
                        ],
                        "text": "ONCOLOGY TREATMENT"
                    }
                ],
                "diagnosis": [
                    {
                        "condition": {
                            "reference": "Condition/e-QRP06WZlU46Y1cUAoTuEg3",
                            "type": "Condition",
                            "display": "Multiple myeloma (CMS/HCC)"
                        }
                    }
                ],
                "patient": {
                    "reference": "Patient/e0k0Sfj.dePsucAEP0HkUaA3",
                    "type": "Patient",
                    "display": "Beacon, Abbey"
                },
                "period": {
                    "start": "2016-01-04"
                },
                "team": [
                    {
                        "reference": "CareTeam/e7OMjntZG6aNjhoZxFN-cYNaGncA0Aq4A4XqjS0e6US03",
                        "type": "CareTeam"
                    }
                ]
            },
            "search": {
                "mode": "include"
            }
        }
    ]
}