{
    "resourceType": "Bundle",
    "type": "searchset",
    "total": 4,
    "link": [
        {
            "relation": "self",
            "url": "https://appmarket.epic.com/interconnect-amcurprd-oauth/api/FHIR/R4/MedicationRequest?_include=MedicationRequest:medicationReference&_include=MedicationRequest:subject&_format=json&patient=ehmWWIsz7aQaMFTy0pGzQRA3"
        }
    ],
    "entry": [
        {
            "link": [
                {
                    "relation": "self",
                    "url": "https://appmarket.epic.com/interconnect-amcurprd-oauth/api/FHIR/R4/MedicationRequest/e1yddFEQ7CLQxhwZs8k.DZg3"
                }
            ],
            "fullUrl": "https://appmarket.epic.com/interconnect-amcurprd-oauth/api/FHIR/R4/MedicationRequest/e1yddFEQ7CLQxhwZs8k.DZg3",
            "resource": {
                "resourceType": "MedicationRequest",
                "id": "e1yddFEQ7CLQxhwZs8k.DZg3",
                "identifier": [
                    {
                        "use": "usual",
                        "system": "urn:oid:1.2.840.114350.1.13.0.1.7.2.798268",
                        "value": "967693"
                    }
                ],
                "status": "completed",
                "intent": "order",
                "category": [
                    {
                        "coding": [
                            {
                                "system": "http://terminology.hl7.org/CodeSystem/medicationrequest-category",
                                "code": "outpatient",
                                "display": "Outpatient"
                            }
                        ],
                        "text": "Outpatient"
                    }
                ],
                "medicationReference": {
                    "reference": "Medication/eIE73xPrCj3.gJJ6fNssIf5B2jwg.9Flm7d.2dEQBTu6cFeBW3yG6NePFCeOw6Cg33",
                    "display": "adenosine (ADENOCARD) injection 12 mg/4 mL"
                },
                "subject": {
                    "reference": "Patient/ehmWWIsz7aQaMFTy0pGzQRA3",
                    "display": "Lmrtesting, Caius"
                },
                "encounter": {
                    "reference": "Encounter/eXXO2gif.7WfmUtIY2hHcGw3",
                    "identifier": {
                        "use": "usual",
                        "system": "urn:oid:1.2.840.114350.1.13.0.1.7.3.698084.8",
                        "value": "22801"
                    },
                    "display": "Hospital Encounter"
                },
                "authoredOn": "2015-04-29T15:41:23Z",
                "requester": {
                    "reference": "Practitioner/e8q8nmCu5ehjRF8JYikiOmA3",
                    "type": "Practitioner",
                    "display": "Cardiologist Cupid, MD"
                },
                "recorder": {
                    "reference": "Practitioner/eMAZPLPXeQk-jnaTxGUgJJg3",
                    "type": "Practitioner",
                    "display": "Rn Cupid, RN"
                },
                "courseOfTherapyType": {
                    "coding": [
                        {
                            "system": "http://terminology.hl7.org/CodeSystem/medicationrequest-course-of-therapy",
                            "code": "acute",
                            "display": "Short course (acute) therapy"
                        }
                    ],
                    "text": "Short course (acute) therapy"
                },
                "dosageInstruction": [
                    {
                        "text": "9 mg, Intravenous, Once, Wed 4/29/15 at 1045, For 1 dose",
                        "timing": {
                            "repeat": {
                                "boundsPeriod": {
                                    "start": "2015-04-29T15:45:00Z",
                                    "end": "2015-04-29T15:45:00Z"
                                },
                                "count": 1
                            },
                            "code": {
                                "text": "Once"
                            }
                        },
                        "asNeededBoolean": false,
                        "route": {
                            "coding": [
                                {
                                    "system": "http://snomed.info/sct",
                                    "code": "418114005",
                                    "display": "Intravenous central route (qualifier value)"
                                },
                                {
                                    "system": "urn:oid:1.2.840.114350.1.13.0.1.7.4.798268.7025",
                                    "code": "11",
                                    "display": "Intravenous"
                                }
                            ],
                            "text": "Intravenous"
                        },
                        "doseAndRate": [
                            {
                                "type": {
                                    "coding": [
                                        {
                                            "system": "http://epic.com/CodeSystem/dose-rate-type",
                                            "code": "calculated",
                                            "display": "calculated"
                                        }
                                    ],
                                    "text": "calculated"
                                },
                                "doseQuantity": {
                                    "value": 9,
                                    "unit": "mg",
                                    "system": "http://unitsofmeasure.org",
                                    "code": "mg"
                                }
                            },
                            {
                                "type": {
                                    "coding": [
                                        {
                                            "system": "http://epic.com/CodeSystem/dose-rate-type",
                                            "code": "admin-amount",
                                            "display": "admin-amount"
                                        }
                                    ],
                                    "text": "admin-amount"
                                },
                                "doseQuantity": {
                                    "value": 3,
                                    "unit": "mL",
                                    "system": "http://unitsofmeasure.org",
                                    "code": "mL"
                                }
                            },
                            {
                                "type": {
                                    "coding": [
                                        {
                                            "system": "http://epic.com/CodeSystem/dose-rate-type",
                                            "code": "ordered",
                                            "display": "ordered"
                                        }
                                    ],
                                    "text": "ordered"
                                },
                                "doseQuantity": {
                                    "value": 9,
                                    "unit": "mg",
                                    "system": "http://unitsofmeasure.org",
                                    "code": "mg"
                                }
                            }
                        ]
                    }
                ]
            },
            "search": {
                "mode": "match"
            }
        },
        {
            "link": [
                {
                    "relation": "self",
                    "url": "https://appmarket.epic.com/interconnect-amcurprd-oauth/api/FHIR/R4/MedicationRequest/e3F63vEUe2o9gd2BbFGnHOg3"
                }
            ],
            "fullUrl": "https://appmarket.epic.com/interconnect-amcurprd-oauth/api/FHIR/R4/MedicationRequest/e3F63vEUe2o9gd2BbFGnHOg3",
            "resource": {
                "resourceType": "MedicationRequest",
                "id": "e3F63vEUe2o9gd2BbFGnHOg3",
                "identifier": [
                    {
                        "use": "usual",
                        "system": "urn:oid:1.2.840.114350.1.13.0.1.7.2.798268",
                        "value": "967691"
                    }
                ],
                "status": "active",
                "intent": "plan",
                "category": [
                    {
                        "coding": [
                            {
                                "system": "http://terminology.hl7.org/CodeSystem/medicationrequest-category",
                                "code": "community",
                                "display": "Community"
                            }
                        ],
                        "text": "Community"
                    }
                ],
                "reportedBoolean": true,
                "medicationReference": {
                    "reference": "Medication/es6APkFe7AnnhoECALy2bKdLZ8JIXziit1fhNb1-fjriK34Xxti3gio5hNiImfKXJ3",
                    "display": "multivitamin capsule"
                },
                "subject": {
                    "reference": "Patient/ehmWWIsz7aQaMFTy0pGzQRA3",
                    "display": "Lmrtesting, Caius"
                },
                "encounter": {
                    "reference": "Encounter/eels7yMy.9KiAFh1zi7kNdg3",
                    "identifier": {
                        "use": "usual",
                        "system": "urn:oid:1.2.840.114350.1.13.0.1.7.3.698084.8",
                        "value": "22802"
                    },
                    "display": "Hospital Encounter"
                },
                "authoredOn": "2015-04-29T15:21:48Z",
                "requester": {
                    "extension": [
                        {
                            "valueCode": "unknown",
                            "url": "http://hl7.org/fhir/StructureDefinition/data-absent-reason"
                        }
                    ]
                },
                "recorder": {
                    "reference": "Practitioner/e.VOJWeXsfrCwGNQjKmeTBQ3",
                    "type": "Practitioner",
                    "display": "Technologist Cupid, RT"
                },
                "courseOfTherapyType": {
                    "coding": [
                        {
                            "system": "http://terminology.hl7.org/CodeSystem/medicationrequest-course-of-therapy",
                            "code": "acute",
                            "display": "Short course (acute) therapy"
                        }
                    ],
                    "text": "Short course (acute) therapy"
                },
                "dosageInstruction": [
                    {
                        "text": "Take 1 capsule by mouth daily., Until Discontinued, Historical Med",
                        "patientInstruction": "Take 1 capsule by mouth daily.",
                        "timing": {
                            "repeat": {
                                "timeOfDay": [
                                    "09:00:00"
                                ]
                            },
                            "code": {
                                "text": "0900"
                            }
                        },
                        "asNeededBoolean": false,
                        "route": {
                            "coding": [
                                {
                                    "system": "http://snomed.info/sct",
                                    "code": "260548002",
                                    "display": "Oral (qualifier value)"
                                },
                                {
                                    "system": "urn:oid:1.2.840.114350.1.13.0.1.7.4.798268.7025",
                                    "code": "15",
                                    "display": "Oral"
                                }
                            ],
                            "text": "Oral"
                        },
                        "method": {
                            "coding": [
                                {
                                    "system": "http://snomed.info/sct",
                                    "code": "419652001",
                                    "display": "Take"
                                }
                            ],
                            "text": "Take"
                        },
                        "doseAndRate": [
                            {
                                "type": {
                                    "coding": [
                                        {
                                            "system": "http://epic.com/CodeSystem/dose-rate-type",
                                            "code": "ordered",
                                            "display": "ordered"
                                        }
                                    ],
                                    "text": "ordered"
                                },
                                "doseQuantity": {
                                    "value": 1,
                                    "unit": "capsule",
                                    "system": "http://unitsofmeasure.org",
                                    "code": "{capsule}"
                                }
                            }
                        ]
                    }
                ]
            },
            "search": {
                "mode": "match"
            }
        },
        {
            "link": [
                {
                    "relation": "self",
                    "url": "https://appmarket.epic.com/interconnect-amcurprd-oauth/api/FHIR/R4/MedicationRequest/eDMToe3XI96sS9aEGFe9JPg3"
                }
            ],
            "fullUrl": "https://appmarket.epic.com/interconnect-amcurprd-oauth/api/FHIR/R4/MedicationRequest/eDMToe3XI96sS9aEGFe9JPg3",
            "resource": {
                "resourceType": "MedicationRequest",
                "id": "eDMToe3XI96sS9aEGFe9JPg3",
                "identifier": [
                    {
                        "use": "usual",
                        "system": "urn:oid:1.2.840.114350.1.13.0.1.7.2.798268",
                        "value": "967692"
                    }
                ],
                "status": "active",
                "intent": "order",
                "category": [
                    {
                        "coding": [
                            {
                                "system": "http://terminology.hl7.org/CodeSystem/medicationrequest-category",
                                "code": "outpatient",
                                "display": "Outpatient"
                            }
                        ],
                        "text": "Outpatient"
                    }
                ],
                "medicationReference": {
                    "reference": "Medication/eIE73xPrCj3.gJJ6fNssIfwttwCQQdaXA1jG0-gTwwIbKxUe1WscTvAXb.uWvLoGs3",
                    "display": "adenosine (ADENOCARD) injection 12 mg/4 mL"
                },
                "subject": {
                    "reference": "Patient/ehmWWIsz7aQaMFTy0pGzQRA3",
                    "display": "Lmrtesting, Caius"
                },
                "encounter": {
                    "reference": "Encounter/eels7yMy.9KiAFh1zi7kNdg3",
                    "identifier": {
                        "use": "usual",
                        "system": "urn:oid:1.2.840.114350.1.13.0.1.7.3.698084.8",
                        "value": "22802"
                    },
                    "display": "Hospital Encounter"
                },
                "authoredOn": "2015-04-29T15:25:50Z",
                "requester": {
                    "reference": "Practitioner/e8q8nmCu5ehjRF8JYikiOmA3",
                    "type": "Practitioner",
                    "display": "Cardiologist Cupid, MD"
                },
                "recorder": {
                    "reference": "Practitioner/e.VOJWeXsfrCwGNQjKmeTBQ3",
                    "type": "Practitioner",
                    "display": "Technologist Cupid, RT"
                },
                "courseOfTherapyType": {
                    "coding": [
                        {
                            "system": "http://terminology.hl7.org/CodeSystem/medicationrequest-course-of-therapy",
                            "code": "acute",
                            "display": "Short course (acute) therapy"
                        }
                    ],
                    "text": "Short course (acute) therapy"
                },
                "dosageInstruction": [
                    {
                        "text": "8.1 mg (rounded from 8 mg), Intravenous, Once, Wed 4/29/15 at 1030, For 1 dose",
                        "timing": {
                            "repeat": {
                                "boundsPeriod": {
                                    "start": "2015-04-29T15:30:00Z"
                                },
                                "count": 1
                            },
                            "code": {
                                "text": "Once"
                            }
                        },
                        "asNeededBoolean": false,
                        "route": {
                            "coding": [
                                {
                                    "system": "http://snomed.info/sct",
                                    "code": "418114005",
                                    "display": "Intravenous central route (qualifier value)"
                                },
                                {
                                    "system": "urn:oid:1.2.840.114350.1.13.0.1.7.4.798268.7025",
                                    "code": "11",
                                    "display": "Intravenous"
                                }
                            ],
                            "text": "Intravenous"
                        },
                        "doseAndRate": [
                            {
                                "type": {
                                    "coding": [
                                        {
                                            "system": "http://epic.com/CodeSystem/dose-rate-type",
                                            "code": "calculated",
                                            "display": "calculated"
                                        }
                                    ],
                                    "text": "calculated"
                                },
                                "doseQuantity": {
                                    "value": 8.1,
                                    "unit": "mg",
                                    "system": "http://unitsofmeasure.org",
                                    "code": "mg"
                                }
                            },
                            {
                                "type": {
                                    "coding": [
                                        {
                                            "system": "http://epic.com/CodeSystem/dose-rate-type",
                                            "code": "admin-amount",
                                            "display": "admin-amount"
                                        }
                                    ],
                                    "text": "admin-amount"
                                },
                                "doseQuantity": {
                                    "value": 2.7,
                                    "unit": "mL",
                                    "system": "http://unitsofmeasure.org",
                                    "code": "mL"
                                }
                            },
                            {
                                "type": {
                                    "coding": [
                                        {
                                            "system": "http://epic.com/CodeSystem/dose-rate-type",
                                            "code": "ordered",
                                            "display": "ordered"
                                        }
                                    ],
                                    "text": "ordered"
                                },
                                "doseQuantity": {
                                    "value": 8,
                                    "unit": "mg",
                                    "system": "http://unitsofmeasure.org",
                                    "code": "mg"
                                }
                            }
                        ]
                    }
                ]
            },
            "search": {
                "mode": "match"
            }
        },
        {
            "link": [
                {
                    "relation": "self",
                    "url": "https://appmarket.epic.com/interconnect-amcurprd-oauth/api/FHIR/R4/MedicationRequest/ebLNNIy9eb5SKLQkeAza8qA3"
                }
            ],
            "fullUrl": "https://appmarket.epic.com/interconnect-amcurprd-oauth/api/FHIR/R4/MedicationRequest/ebLNNIy9eb5SKLQkeAza8qA3",
            "resource": {
                "resourceType": "MedicationRequest",
                "id": "ebLNNIy9eb5SKLQkeAza8qA3",
                "identifier": [
                    {
                        "use": "usual",
                        "system": "urn:oid:1.2.840.114350.1.13.0.1.7.2.798268",
                        "value": "967690"
                    }
                ],
                "status": "completed",
                "intent": "order",
                "category": [
                    {
                        "coding": [
                            {
                                "system": "http://terminology.hl7.org/CodeSystem/medicationrequest-category",
                                "code": "outpatient",
                                "display": "Outpatient"
                            }
                        ],
                        "text": "Outpatient"
                    }
                ],
                "medicationReference": {
                    "reference": "Medication/efPd.Nqb-.GhYWEMVVEebutz8uwY6p8squq5eVRd8BKsPdg0pJQJ3vWU8ayNV-y.Z3",
                    "display": "technetium medronate (Tc-MDP) injection"
                },
                "subject": {
                    "reference": "Patient/ehmWWIsz7aQaMFTy0pGzQRA3",
                    "display": "Lmrtesting, Caius"
                },
                "encounter": {
                    "reference": "Encounter/emOSWYVpJps7RBvf5jYqmjA3",
                    "identifier": {
                        "use": "usual",
                        "system": "urn:oid:1.2.840.114350.1.13.0.1.7.3.698084.8",
                        "value": "22800"
                    },
                    "display": "Hospital Encounter"
                },
                "authoredOn": "2015-04-29T15:14:17Z",
                "requester": {
                    "reference": "Practitioner/e8q8nmCu5ehjRF8JYikiOmA3",
                    "type": "Practitioner",
                    "display": "Cardiologist Cupid, MD"
                },
                "recorder": {
                    "reference": "Practitioner/efjdOHomcPctcCffcE015Tg3",
                    "type": "Practitioner",
                    "display": "Technologist Radiology, RT"
                },
                "courseOfTherapyType": {
                    "coding": [
                        {
                            "system": "http://terminology.hl7.org/CodeSystem/medicationrequest-course-of-therapy",
                            "code": "acute",
                            "display": "Short course (acute) therapy"
                        }
                    ],
                    "text": "Short course (acute) therapy"
                },
                "dosageInstruction": [
                    {
                        "text": "25 millicurie, Intravenous, Once, Wed 4/29/15 at 1015, For 1 dose",
                        "timing": {
                            "repeat": {
                                "boundsPeriod": {
                                    "start": "2015-04-29T15:15:00Z",
                                    "end": "2015-04-29T15:15:00Z"
                                },
                                "count": 1
                            },
                            "code": {
                                "text": "Once"
                            }
                        },
                        "asNeededBoolean": false,
                        "route": {
                            "coding": [
                                {
                                    "system": "http://snomed.info/sct",
                                    "code": "418114005",
                                    "display": "Intravenous central route (qualifier value)"
                                },
                                {
                                    "system": "urn:oid:1.2.840.114350.1.13.0.1.7.4.798268.7025",
                                    "code": "11",
                                    "display": "Intravenous"
                                }
                            ],
                            "text": "Intravenous"
                        },
                        "doseAndRate": [
                            {
                                "type": {
                                    "coding": [
                                        {
                                            "system": "http://epic.com/CodeSystem/dose-rate-type",
                                            "code": "calculated",
                                            "display": "calculated"
                                        }
                                    ],
                                    "text": "calculated"
                                },
                                "doseQuantity": {
                                    "value": 25,
                                    "unit": "millicurie",
                                    "system": "http://unitsofmeasure.org",
                                    "code": "mCi"
                                }
                            },
                            {
                                "type": {
                                    "coding": [
                                        {
                                            "system": "http://epic.com/CodeSystem/dose-rate-type",
                                            "code": "admin-amount",
                                            "display": "admin-amount"
                                        }
                                    ],
                                    "text": "admin-amount"
                                },
                                "doseQuantity": {
                                    "value": 25,
                                    "unit": "millicurie",
                                    "system": "http://unitsofmeasure.org",
                                    "code": "mCi"
                                }
                            },
                            {
                                "type": {
                                    "coding": [
                                        {
                                            "system": "http://epic.com/CodeSystem/dose-rate-type",
                                            "code": "ordered",
                                            "display": "ordered"
                                        }
                                    ],
                                    "text": "ordered"
                                },
                                "doseQuantity": {
                                    "value": 25,
                                    "unit": "millicurie",
                                    "system": "http://unitsofmeasure.org",
                                    "code": "mCi"
                                }
                            }
                        ]
                    }
                ]
            },
            "search": {
                "mode": "match"
            }
        },
        {
            "link": [
                {
                    "relation": "self",
                    "url": "https://appmarket.epic.com/interconnect-amcurprd-oauth/api/FHIR/R4/Medication/eIE73xPrCj3.gJJ6fNssIf5B2jwg.9Flm7d.2dEQBTu6cFeBW3yG6NePFCeOw6Cg33"
                }
            ],
            "fullUrl": "https://appmarket.epic.com/interconnect-amcurprd-oauth/api/FHIR/R4/Medication/eIE73xPrCj3.gJJ6fNssIf5B2jwg.9Flm7d.2dEQBTu6cFeBW3yG6NePFCeOw6Cg33",
            "resource": {
                "resourceType": "Medication",
                "id": "eIE73xPrCj3.gJJ6fNssIf5B2jwg.9Flm7d.2dEQBTu6cFeBW3yG6NePFCeOw6Cg33",
                "code": {
                    "coding": [
                        {
                            "system": "urn:oid:2.16.840.1.113883.6.253",
                            "code": "89477"
                        },
                        {
                            "system": "urn:oid:2.16.840.1.113883.6.68",
                            "code": "35500010002020"
                        },
                        {
                            "system": "urn:oid:2.16.840.1.113883.6.162",
                            "code": "71892"
                        },
                        {
                            "system": "http://www.nlm.nih.gov/research/umls/rxnorm",
                            "code": "296"
                        },
                        {
                            "system": "http://www.nlm.nih.gov/research/umls/rxnorm",
                            "code": "727355"
                        },
                        {
                            "system": "http://www.nlm.nih.gov/research/umls/rxnorm",
                            "code": "1654186"
                        }
                    ],
                    "text": "adenosine (ADENOCARD) injection 12 mg/4 mL"
                },
                "form": {
                    "coding": [
                        {
                            "system": "urn:oid:1.2.840.114350.1.13.0.1.7.4.698288.310",
                            "code": "SOLN",
                            "display": "solution"
                        }
                    ],
                    "text": "solution"
                },
                "ingredient": [
                    {
                        "itemCodeableConcept": {
                            "coding": [
                                {
                                    "system": "urn:oid:2.16.840.1.113883.6.253",
                                    "code": "89477"
                                },
                                {
                                    "system": "urn:oid:2.16.840.1.113883.6.68",
                                    "code": "35500010002020"
                                },
                                {
                                    "system": "urn:oid:2.16.840.1.113883.6.162",
                                    "code": "71892"
                                },
                                {
                                    "system": "http://www.nlm.nih.gov/research/umls/rxnorm",
                                    "code": "296"
                                },
                                {
                                    "system": "http://www.nlm.nih.gov/research/umls/rxnorm",
                                    "code": "727355"
                                },
                                {
                                    "system": "http://www.nlm.nih.gov/research/umls/rxnorm",
                                    "code": "1654186"
                                }
                            ],
                            "text": "adenosine (ADENOCARD) injection 12 mg/4 mL"
                        },
                        "strength": {
                            "numerator": {
                                "value": 12,
                                "unit": "MG/4ML"
                            },
                            "denominator": {
                                "value": 12,
                                "unit": "MG/4ML"
                            }
                        }
                    }
                ]
            },
            "search": {
                "mode": "include"
            }
        },
        {
            "link": [
                {
                    "relation": "self",
                    "url": "https://appmarket.epic.com/interconnect-amcurprd-oauth/api/FHIR/R4/Medication/eIE73xPrCj3.gJJ6fNssIfwttwCQQdaXA1jG0-gTwwIbKxUe1WscTvAXb.uWvLoGs3"
                }
            ],
            "fullUrl": "https://appmarket.epic.com/interconnect-amcurprd-oauth/api/FHIR/R4/Medication/eIE73xPrCj3.gJJ6fNssIfwttwCQQdaXA1jG0-gTwwIbKxUe1WscTvAXb.uWvLoGs3",
            "resource": {
                "resourceType": "Medication",
                "id": "eIE73xPrCj3.gJJ6fNssIfwttwCQQdaXA1jG0-gTwwIbKxUe1WscTvAXb.uWvLoGs3",
                "code": {
                    "coding": [
                        {
                            "system": "urn:oid:2.16.840.1.113883.6.253",
                            "code": "89477"
                        },
                        {
                            "system": "urn:oid:2.16.840.1.113883.6.68",
                            "code": "35500010002020"
                        },
                        {
                            "system": "urn:oid:2.16.840.1.113883.6.162",
                            "code": "71892"
                        },
                        {
                            "system": "http://www.nlm.nih.gov/research/umls/rxnorm",
                            "code": "296"
                        },
                        {
                            "system": "http://www.nlm.nih.gov/research/umls/rxnorm",
                            "code": "727355"
                        },
                        {
                            "system": "http://www.nlm.nih.gov/research/umls/rxnorm",
                            "code": "1654186"
                        }
                    ],
                    "text": "adenosine (ADENOCARD) injection 12 mg/4 mL"
                },
                "form": {
                    "coding": [
                        {
                            "system": "urn:oid:1.2.840.114350.1.13.0.1.7.4.698288.310",
                            "code": "SOLN",
                            "display": "solution"
                        }
                    ],
                    "text": "solution"
                },
                "ingredient": [
                    {
                        "itemCodeableConcept": {
                            "coding": [
                                {
                                    "system": "urn:oid:2.16.840.1.113883.6.253",
                                    "code": "89477"
                                },
                                {
                                    "system": "urn:oid:2.16.840.1.113883.6.68",
                                    "code": "35500010002020"
                                },
                                {
                                    "system": "urn:oid:2.16.840.1.113883.6.162",
                                    "code": "71892"
                                },
                                {
                                    "system": "http://www.nlm.nih.gov/research/umls/rxnorm",
                                    "code": "296"
                                },
                                {
                                    "system": "http://www.nlm.nih.gov/research/umls/rxnorm",
                                    "code": "727355"
                                },
                                {
                                    "system": "http://www.nlm.nih.gov/research/umls/rxnorm",
                                    "code": "1654186"
                                }
                            ],
                            "text": "adenosine (ADENOCARD) injection 12 mg/4 mL"
                        },
                        "strength": {
                            "numerator": {
                                "value": 12,
                                "unit": "MG/4ML"
                            },
                            "denominator": {
                                "value": 12,
                                "unit": "MG/4ML"
                            }
                        }
                    }
                ]
            },
            "search": {
                "mode": "include"
            }
        },
        {
            "link": [
                {
                    "relation": "self",
                    "url": "https://appmarket.epic.com/interconnect-amcurprd-oauth/api/FHIR/R4/Medication/efPd.Nqb-.GhYWEMVVEebutz8uwY6p8squq5eVRd8BKsPdg0pJQJ3vWU8ayNV-y.Z3"
                }
            ],
            "fullUrl": "https://appmarket.epic.com/interconnect-amcurprd-oauth/api/FHIR/R4/Medication/efPd.Nqb-.GhYWEMVVEebutz8uwY6p8squq5eVRd8BKsPdg0pJQJ3vWU8ayNV-y.Z3",
            "resource": {
                "resourceType": "Medication",
                "id": "efPd.Nqb-.GhYWEMVVEebutz8uwY6p8squq5eVRd8BKsPdg0pJQJ3vWU8ayNV-y.Z3",
                "code": {
                    "coding": [
                        {
                            "system": "urn:oid:2.16.840.1.113883.6.253",
                            "code": "144854"
                        },
                        {
                            "system": "urn:oid:2.16.840.1.113883.6.68",
                            "code": "94358580506400"
                        },
                        {
                            "system": "urn:oid:2.16.840.1.113883.6.162",
                            "code": "64125"
                        },
                        {
                            "system": "http://www.nlm.nih.gov/research/umls/rxnorm",
                            "code": "1488818"
                        }
                    ],
                    "text": "technetium medronate (Tc-MDP) injection"
                },
                "form": {
                    "coding": [
                        {
                            "system": "urn:oid:1.2.840.114350.1.13.0.1.7.4.698288.310",
                            "code": "KIT",
                            "display": "kit"
                        }
                    ],
                    "text": "kit"
                },
                "ingredient": [
                    {
                        "itemCodeableConcept": {
                            "coding": [
                                {
                                    "system": "urn:oid:2.16.840.1.113883.6.253",
                                    "code": "144854"
                                },
                                {
                                    "system": "urn:oid:2.16.840.1.113883.6.68",
                                    "code": "94358580506400"
                                },
                                {
                                    "system": "urn:oid:2.16.840.1.113883.6.162",
                                    "code": "64125"
                                },
                                {
                                    "system": "http://www.nlm.nih.gov/research/umls/rxnorm",
                                    "code": "1488818"
                                }
                            ],
                            "text": "technetium medronate (Tc-MDP) injection"
                        }
                    }
                ]
            },
            "search": {
                "mode": "include"
            }
        },
        {
            "link": [
                {
                    "relation": "self",
                    "url": "https://appmarket.epic.com/interconnect-amcurprd-oauth/api/FHIR/R4/Patient/ehmWWIsz7aQaMFTy0pGzQRA3"
                }
            ],
            "fullUrl": "https://appmarket.epic.com/interconnect-amcurprd-oauth/api/FHIR/R4/Patient/ehmWWIsz7aQaMFTy0pGzQRA3",
            "resource": {
                "resourceType": "Patient",
                "id": "ehmWWIsz7aQaMFTy0pGzQRA3",
                "extension": [
                    {
                        "extension": [
                            {
                                "valueCoding": {
                                    "system": "urn:oid:2.16.840.1.113883.6.238",
                                    "code": "2106-3",
                                    "display": "White"
                                },
                                "url": "ombCategory"
                            },
                            {
                                "valueString": "White",
                                "url": "text"
                            }
                        ],
                        "url": "http://hl7.org/fhir/us/core/StructureDefinition/us-core-race"
                    },
                    {
                        "extension": [
                            {
                                "valueCoding": {
                                    "system": "urn:oid:2.16.840.1.113883.6.238",
                                    "code": "2186-5",
                                    "display": "Not Hispanic or Latino"
                                },
                                "url": "ombCategory"
                            },
                            {
                                "valueString": "Not Hispanic or Latino",
                                "url": "text"
                            }
                        ],
                        "url": "http://hl7.org/fhir/us/core/StructureDefinition/us-core-ethnicity"
                    },
                    {
                        "valueCodeableConcept": {
                            "coding": [
                                {
                                    "system": "urn:oid:1.2.840.114350.1.13.0.1.7.10.698084.130.657370.19999000",
                                    "code": "male",
                                    "display": "male"
                                }
                            ]
                        },
                        "url": "http://open.epic.com/FHIR/StructureDefinition/extension/legal-sex"
                    },
                    {
                        "valueCodeableConcept": {
                            "coding": [
                                {
                                    "system": "urn:oid:1.2.840.114350.1.13.0.1.7.10.698084.130.657370.19999000",
                                    "code": "male",
                                    "display": "male"
                                }
                            ]
                        },
                        "url": "http://open.epic.com/FHIR/StructureDefinition/extension/sex-for-clinical-use"
                    },
                    {
                        "valueCode": "M",
                        "url": "http://hl7.org/fhir/us/core/StructureDefinition/us-core-birthsex"
                    }
                ],
                "identifier": [
                    {
                        "use": "usual",
                        "system": "urn:oid:2.16.840.1.113883.4.1",
                        "value": "583-77-5644"
                    },
                    {
                        "use": "usual",
                        "type": {
                            "text": "CEID"
                        },
                        "system": "urn:epic:apporchard.curprod",
                        "value": "AO1PRRD0SL25KTS"
                    },
                    {
                        "use": "usual",
                        "type": {
                            "text": "EPIC"
                        },
                        "system": "urn:oid:1.2.840.114350.1.1",
                        "value": "E5599"
                    },
                    {
                        "use": "usual",
                        "type": {
                            "text": "EXTERNAL"
                        },
                        "system": "urn:oid:1.2.840.114350.1.13.0.1.7.2.698084",
                        "value": "Z5662"
                    },
                    {
                        "use": "usual",
                        "type": {
                            "text": "FHIR"
                        },
                        "system": "http://open.epic.com/FHIR/StructureDefinition/patient-dstu2-fhir-id",
                        "value": "TOSEuoxWgroBEKQbbTavbDwp8PDt2YSZflf4VeUA8EIwB"
                    },
                    {
                        "use": "usual",
                        "type": {
                            "text": "FHIR STU3"
                        },
                        "system": "http://open.epic.com/FHIR/StructureDefinition/patient-fhir-id",
                        "value": "ehmWWIsz7aQaMFTy0pGzQRA3"
                    },
                    {
                        "use": "usual",
                        "type": {
                            "text": "INTERNAL"
                        },
                        "system": "urn:oid:1.2.840.114350.1.13.0.1.7.2.698084",
                        "value": "     Z5662"
                    },
                    {
                        "use": "usual",
                        "type": {
                            "text": "MRN"
                        },
                        "system": "urn:oid:1.2.840.114350.1.13.0.1.7.5.737384.14",
                        "value": "205311"
                    }
                ],
                "active": true,
                "name": [
                    {
                        "use": "official",
                        "text": "Caius Lmrtesting",
                        "family": "Lmrtesting",
                        "given": [
                            "Caius"
                        ]
                    },
                    {
                        "use": "usual",
                        "text": "Caius Lmrtesting",
                        "family": "Lmrtesting",
                        "given": [
                            "Caius"
                        ]
                    }
                ],
                "telecom": [
                    {
                        "system": "phone",
                        "value": "608-555-3120",
                        "use": "home"
                    }
                ],
                "gender": "male",
                "birthDate": "1970-04-29",
                "deceasedBoolean": false,
                "address": [
                    {
                        "use": "home",
                        "line": [
                            "3120 Maple Street"
                        ],
                        "city": "Madison",
                        "state": "WI",
                        "postalCode": "53711",
                        "country": "US"
                    }
                ],
                "maritalStatus": {
                    "text": "Single"
                },
                "contact": [
                    {
                        "relationship": [
                            {
                                "coding": [
                                    {
                                        "system": "http://terminology.hl7.org/CodeSystem/v2-0131",
                                        "code": "O",
                                        "display": "Other"
                                    },
                                    {
                                        "system": "urn:oid:1.2.840.114350.1.13.0.1.7.4.827665.1000",
                                        "code": "5",
                                        "display": "Friend"
                                    }
                                ],
                                "text": "Friend"
                            }
                        ],
                        "name": {
                            "use": "usual",
                            "text": "Friend,Ofmine"
                        },
                        "telecom": [
                            {
                                "system": "phone",
                                "value": "608-555-3120",
                                "use": "home"
                            }
                        ],
                        "address": {
                            "use": "home",
                            "line": [
                                "3120 Maple Street"
                            ],
                            "city": "Madison",
                            "state": "WI",
                            "postalCode": "53711",
                            "country": "US"
                        }
                    },
                    {
                        "relationship": [
                            {
                                "coding": [
                                    {
                                        "system": "http://terminology.hl7.org/CodeSystem/v2-0131",
                                        "code": "E",
                                        "display": "Employer"
                                    }
                                ]
                            }
                        ],
                        "telecom": [
                            {
                                "system": "phone",
                                "value": "608-545-8787",
                                "use": "work"
                            }
                        ],
                        "address": {
                            "use": "work",
                            "line": [
                                "501 TOOL LANE"
                            ],
                            "city": "VERONA",
                            "district": "DANE",
                            "state": "WI",
                            "postalCode": "53593",
                            "country": "US"
                        },
                        "organization": {
                            "display": "Home Improvements"
                        }
                    }
                ],
                "communication": [
                    {
                        "language": {
                            "coding": [
                                {
                                    "system": "urn:ietf:bcp:47",
                                    "code": "en",
                                    "display": "English"
                                }
                            ],
                            "text": "English"
                        },
                        "preferred": true
                    }
                ],
                "generalPractitioner": [
                    {
                        "reference": "Practitioner/emyxw6.H3vv-X6.rSdESnjA3",
                        "type": "Practitioner",
                        "display": "Physician One Family Medicine, MD"
                    }
                ],
                "managingOrganization": {
                    "reference": "Organization/enRyWnSP963FYDpoks4NHOA3",
                    "display": "Epic Hospital System"
                }
            },
            "search": {
                "mode": "include"
            }
        },
        {
            "link": [
                {
                    "relation": "self",
                    "url": "https://appmarket.epic.com/interconnect-amcurprd-oauth/api/FHIR/R4/Medication/es6APkFe7AnnhoECALy2bKdLZ8JIXziit1fhNb1-fjriK34Xxti3gio5hNiImfKXJ3"
                }
            ],
            "fullUrl": "https://appmarket.epic.com/interconnect-amcurprd-oauth/api/FHIR/R4/Medication/es6APkFe7AnnhoECALy2bKdLZ8JIXziit1fhNb1-fjriK34Xxti3gio5hNiImfKXJ3",
            "resource": {
                "resourceType": "Medication",
                "id": "es6APkFe7AnnhoECALy2bKdLZ8JIXziit1fhNb1-fjriK34Xxti3gio5hNiImfKXJ3",
                "code": {
                    "coding": [
                        {
                            "system": "urn:oid:2.16.840.1.113883.6.253",
                            "code": "14033"
                        },
                        {
                            "system": "urn:oid:2.16.840.1.113883.6.68",
                            "code": "78200000000100"
                        },
                        {
                            "system": "urn:oid:2.16.840.1.113883.6.162",
                            "code": "04199"
                        }
                    ],
                    "text": "multivitamin capsule"
                },
                "form": {
                    "coding": [
                        {
                            "system": "urn:oid:1.2.840.114350.1.13.0.1.7.4.698288.310",
                            "code": "CAPS",
                            "display": "capsule"
                        }
                    ],
                    "text": "capsule"
                },
                "ingredient": [
                    {
                        "itemCodeableConcept": {
                            "coding": [
                                {
                                    "system": "urn:oid:2.16.840.1.113883.6.253",
                                    "code": "14033"
                                },
                                {
                                    "system": "urn:oid:2.16.840.1.113883.6.68",
                                    "code": "78200000000100"
                                },
                                {
                                    "system": "urn:oid:2.16.840.1.113883.6.162",
                                    "code": "04199"
                                }
                            ],
                            "text": "multivitamin capsule"
                        }
                    }
                ]
            },
            "search": {
                "mode": "include"
            }
        }
    ]
}