{
    "resourceType": "Bundle",
    "type": "searchset",
    "total": 13,
    "link": [
        {
            "relation": "self",
            "url": "https://appmarket.epic.com/interconnect-amcurprd-oauth/api/FHIR/R4/MedicationRequest?_include=MedicationRequest:medicationReference&_include=MedicationRequest:subject&_format=json&patient=eYg3-1aJmCMq-umIIq2Njxw3"
        }
    ],
    "entry": [
        {
            "link": [
                {
                    "relation": "self",
                    "url": "https://appmarket.epic.com/interconnect-amcurprd-oauth/api/FHIR/R4/MedicationRequest/e1Vxa-YyKt7Fh3z.0VNyOZQ3"
                }
            ],
            "fullUrl": "https://appmarket.epic.com/interconnect-amcurprd-oauth/api/FHIR/R4/MedicationRequest/e1Vxa-YyKt7Fh3z.0VNyOZQ3",
            "resource": {
                "resourceType": "MedicationRequest",
                "id": "e1Vxa-YyKt7Fh3z.0VNyOZQ3",
                "identifier": [
                    {
                        "use": "usual",
                        "system": "urn:oid:1.2.840.114350.1.13.0.1.7.2.798268",
                        "value": "985788"
                    }
                ],
                "status": "on-hold",
                "intent": "order",
                "category": [
                    {
                        "coding": [
                            {
                                "system": "http://terminology.hl7.org/CodeSystem/medicationrequest-category",
                                "code": "community",
                                "display": "Community"
                            }
                        ],
                        "text": "Community"
                    }
                ],
                "medicationReference": {
                    "reference": "Medication/eetjoXy-TbdryRS.SobVHBmkU5eT7-usbmjfZNzCfo.ljpjlURCcgc9aoFHImhcaB3",
                    "display": "ibuprofen (MOTRIN) tablet"
                },
                "subject": {
                    "reference": "Patient/eYg3-1aJmCMq-umIIq2Njxw3",
                    "display": "Anesthesia, Abby"
                },
                "encounter": {
                    "reference": "Encounter/emXesGCIEfbiF4Yb6e0ghDQ3",
                    "identifier": {
                        "use": "usual",
                        "system": "urn:oid:1.2.840.114350.1.13.0.1.7.3.698084.8",
                        "value": "38266"
                    },
                    "display": "Office Visit"
                },
                "authoredOn": "2022-03-04",
                "requester": {
                    "reference": "Practitioner/ef9TegF2nfECi-0Skirbvpg3",
                    "type": "Practitioner",
                    "display": "Physician One Cardiology, MD"
                },
                "recorder": {
                    "reference": "Practitioner/eEqlw.bq.AtAr58nQUHl8.Q3",
                    "type": "Practitioner",
                    "display": "Physician Bariatric Surgery, MD"
                },
                "courseOfTherapyType": {
                    "coding": [
                        {
                            "system": "http://terminology.hl7.org/CodeSystem/medicationrequest-course-of-therapy",
                            "code": "acute",
                            "display": "Short course (acute) therapy"
                        }
                    ],
                    "text": "Short course (acute) therapy"
                },
                "dosageInstruction": [
                    {
                        "text": "Take 1 tablet (600 mg total) by mouth 4 (four) times a day if needed for mild pain (pain)., Starting Fri 3/4/2022, Until Sat 3/4/2023 at 2359, Normal",
                        "patientInstruction": "Take 1 tablet (600 mg total) by mouth 4 (four) times a day if needed for mild pain (pain).",
                        "timing": {
                            "repeat": {
                                "boundsPeriod": {
                                    "start": "2022-03-04"
                                },
                                "frequency": 4,
                                "period": 1,
                                "periodUnit": "d"
                            },
                            "code": {
                                "text": "4 times daily as needed"
                            }
                        },
                        "asNeededBoolean": true,
                        "route": {
                            "coding": [
                                {
                                    "system": "http://snomed.info/sct",
                                    "code": "260548002",
                                    "display": "Oral (qualifier value)"
                                },
                                {
                                    "system": "urn:oid:1.2.840.114350.1.13.0.1.7.4.798268.7025",
                                    "code": "15",
                                    "display": "Oral"
                                }
                            ],
                            "text": "Oral"
                        },
                        "method": {
                            "coding": [
                                {
                                    "system": "http://snomed.info/sct",
                                    "code": "419652001",
                                    "display": "Take"
                                }
                            ],
                            "text": "Take"
                        },
                        "doseAndRate": [
                            {
                                "type": {
                                    "coding": [
                                        {
                                            "system": "http://epic.com/CodeSystem/dose-rate-type",
                                            "code": "calculated",
                                            "display": "calculated"
                                        }
                                    ],
                                    "text": "calculated"
                                },
                                "doseQuantity": {
                                    "value": 600,
                                    "unit": "mg",
                                    "system": "http://unitsofmeasure.org",
                                    "code": "mg"
                                }
                            },
                            {
                                "type": {
                                    "coding": [
                                        {
                                            "system": "http://epic.com/CodeSystem/dose-rate-type",
                                            "code": "admin-amount",
                                            "display": "admin-amount"
                                        }
                                    ],
                                    "text": "admin-amount"
                                },
                                "doseQuantity": {
                                    "value": 1,
                                    "unit": "tablet",
                                    "system": "http://unitsofmeasure.org",
                                    "code": "{tbl}"
                                }
                            },
                            {
                                "type": {
                                    "coding": [
                                        {
                                            "system": "http://epic.com/CodeSystem/dose-rate-type",
                                            "code": "ordered",
                                            "display": "ordered"
                                        }
                                    ],
                                    "text": "ordered"
                                },
                                "doseQuantity": {
                                    "value": 600,
                                    "unit": "mg",
                                    "system": "http://unitsofmeasure.org",
                                    "code": "mg"
                                }
                            }
                        ]
                    }
                ],
                "dispenseRequest": {
                    "validityPeriod": {
                        "start": "2022-03-04"
                    },
                    "numberOfRepeatsAllowed": 0,
                    "quantity": {
                        "value": 90,
                        "unit": "tablet"
                    },
                    "expectedSupplyDuration": {
                        "value": 23,
                        "unit": "Day",
                        "system": "http://unitsofmeasure.org",
                        "code": "d"
                    }
                }
            },
            "search": {
                "mode": "match"
            }
        },
        {
            "link": [
                {
                    "relation": "self",
                    "url": "https://appmarket.epic.com/interconnect-amcurprd-oauth/api/FHIR/R4/MedicationRequest/e5jpqsF-GnClIdUlBXUbDNQ3"
                }
            ],
            "fullUrl": "https://appmarket.epic.com/interconnect-amcurprd-oauth/api/FHIR/R4/MedicationRequest/e5jpqsF-GnClIdUlBXUbDNQ3",
            "resource": {
                "resourceType": "MedicationRequest",
                "id": "e5jpqsF-GnClIdUlBXUbDNQ3",
                "identifier": [
                    {
                        "use": "usual",
                        "system": "urn:oid:1.2.840.114350.1.13.0.1.7.2.798268",
                        "value": "895292"
                    }
                ],
                "status": "stopped",
                "intent": "order",
                "category": [
                    {
                        "coding": [
                            {
                                "system": "http://terminology.hl7.org/CodeSystem/medicationrequest-category",
                                "code": "outpatient",
                                "display": "Outpatient"
                            }
                        ],
                        "text": "Outpatient"
                    }
                ],
                "medicationReference": {
                    "reference": "Medication/ehE6DK7mjLRc1FUvWb3oOp6SobNq3RyvP8ACTBScU2iG2V8Bm1F0-eJ1SeI7VLgs03",
                    "display": "lidocaine (XYLOCAINE) injection 1%"
                },
                "subject": {
                    "reference": "Patient/eYg3-1aJmCMq-umIIq2Njxw3",
                    "display": "Anesthesia, Abby"
                },
                "encounter": {
                    "extension": [
                        {
                            "valueIdentifier": {
                                "use": "usual",
                                "system": "urn:oid:1.2.840.114350.1.13.0.1.7.3.698084.8",
                                "value": "11909"
                            },
                            "url": "http://open.epic.com/FHIR/StructureDefinition/extension/ce-encounter-id"
                        }
                    ],
                    "identifier": {
                        "use": "usual",
                        "system": "urn:oid:1.2.840.114350.1.13.0.1.7.3.698084.8",
                        "value": "11907"
                    },
                    "display": "Anesthesia"
                },
                "authoredOn": "2013-11-13T23:09:31Z",
                "requester": {
                    "reference": "Practitioner/enHmcmrIOygs4mq-t6soebQ3",
                    "type": "Practitioner",
                    "display": "Anesthesiologist Anesthesia, MD"
                },
                "recorder": {
                    "reference": "Practitioner/enHmcmrIOygs4mq-t6soebQ3",
                    "type": "Practitioner",
                    "display": "Anesthesiologist Anesthesia, MD"
                },
                "courseOfTherapyType": {
                    "coding": [
                        {
                            "system": "http://terminology.hl7.org/CodeSystem/medicationrequest-course-of-therapy",
                            "code": "acute",
                            "display": "Short course (acute) therapy"
                        }
                    ],
                    "text": "Short course (acute) therapy"
                },
                "dosageInstruction": [
                    {
                        "text": "As needed, Starting Wed 11/13/13 at 1708, Anesthesia Intra-op",
                        "timing": {
                            "repeat": {
                                "boundsPeriod": {
                                    "start": "2013-11-13T23:08:00Z",
                                    "end": "2013-11-28T15:49:26Z"
                                },
                                "frequency": 1,
                                "period": 1,
                                "periodUnit": "d"
                            },
                            "code": {
                                "text": "As needed"
                            }
                        },
                        "asNeededBoolean": true
                    }
                ]
            },
            "search": {
                "mode": "match"
            }
        },
        {
            "link": [
                {
                    "relation": "self",
                    "url": "https://appmarket.epic.com/interconnect-amcurprd-oauth/api/FHIR/R4/MedicationRequest/eEUNeoMUgrZlbP1FbI2W1iQ3"
                }
            ],
            "fullUrl": "https://appmarket.epic.com/interconnect-amcurprd-oauth/api/FHIR/R4/MedicationRequest/eEUNeoMUgrZlbP1FbI2W1iQ3",
            "resource": {
                "resourceType": "MedicationRequest",
                "id": "eEUNeoMUgrZlbP1FbI2W1iQ3",
                "identifier": [
                    {
                        "use": "usual",
                        "system": "urn:oid:1.2.840.114350.1.13.0.1.7.2.798268",
                        "value": "895295"
                    }
                ],
                "status": "stopped",
                "intent": "order",
                "category": [
                    {
                        "coding": [
                            {
                                "system": "http://terminology.hl7.org/CodeSystem/medicationrequest-category",
                                "code": "outpatient",
                                "display": "Outpatient"
                            }
                        ],
                        "text": "Outpatient"
                    }
                ],
                "medicationReference": {
                    "reference": "Medication/e.IZlEDKZ-g4tmlTgs2a0WLh7UCPzuiIWqnBWzqI0soXiloJwsO.uDUiMhB34u-u83",
                    "display": "fentaNYL (SUBLIMAZE) injection"
                },
                "subject": {
                    "reference": "Patient/eYg3-1aJmCMq-umIIq2Njxw3",
                    "display": "Anesthesia, Abby"
                },
                "encounter": {
                    "extension": [
                        {
                            "valueIdentifier": {
                                "use": "usual",
                                "system": "urn:oid:1.2.840.114350.1.13.0.1.7.3.698084.8",
                                "value": "11909"
                            },
                            "url": "http://open.epic.com/FHIR/StructureDefinition/extension/ce-encounter-id"
                        }
                    ],
                    "identifier": {
                        "use": "usual",
                        "system": "urn:oid:1.2.840.114350.1.13.0.1.7.3.698084.8",
                        "value": "11907"
                    },
                    "display": "Anesthesia"
                },
                "authoredOn": "2013-11-13T23:09:58Z",
                "requester": {
                    "reference": "Practitioner/enHmcmrIOygs4mq-t6soebQ3",
                    "type": "Practitioner",
                    "display": "Anesthesiologist Anesthesia, MD"
                },
                "recorder": {
                    "reference": "Practitioner/enHmcmrIOygs4mq-t6soebQ3",
                    "type": "Practitioner",
                    "display": "Anesthesiologist Anesthesia, MD"
                },
                "courseOfTherapyType": {
                    "coding": [
                        {
                            "system": "http://terminology.hl7.org/CodeSystem/medicationrequest-course-of-therapy",
                            "code": "acute",
                            "display": "Short course (acute) therapy"
                        }
                    ],
                    "text": "Short course (acute) therapy"
                },
                "dosageInstruction": [
                    {
                        "text": "Intravenous, As needed, other, Starting Wed 11/13/13 at 1708, Anesthesia Intra-op",
                        "timing": {
                            "repeat": {
                                "boundsPeriod": {
                                    "start": "2013-11-13T23:08:00Z",
                                    "end": "2013-11-28T15:49:26Z"
                                },
                                "frequency": 1,
                                "period": 1,
                                "periodUnit": "d"
                            },
                            "code": {
                                "text": "As needed"
                            }
                        },
                        "asNeededBoolean": true,
                        "route": {
                            "coding": [
                                {
                                    "system": "http://snomed.info/sct",
                                    "code": "418114005",
                                    "display": "Intravenous central route (qualifier value)"
                                },
                                {
                                    "system": "urn:oid:1.2.840.114350.1.13.0.1.7.4.798268.7025",
                                    "code": "11",
                                    "display": "Intravenous"
                                }
                            ],
                            "text": "Intravenous"
                        }
                    }
                ]
            },
            "search": {
                "mode": "match"
            }
        },
        {
            "link": [
                {
                    "relation": "self",
                    "url": "https://appmarket.epic.com/interconnect-amcurprd-oauth/api/FHIR/R4/MedicationRequest/eXqkDIBSf47Hp2SW0M-kIQw3"
                }
            ],
            "fullUrl": "https://appmarket.epic.com/interconnect-amcurprd-oauth/api/FHIR/R4/MedicationRequest/eXqkDIBSf47Hp2SW0M-kIQw3",
            "resource": {
                "resourceType": "MedicationRequest",
                "id": "eXqkDIBSf47Hp2SW0M-kIQw3",
                "identifier": [
                    {
                        "use": "usual",
                        "system": "urn:oid:1.2.840.114350.1.13.0.1.7.2.798268",
                        "value": "895282"
                    }
                ],
                "status": "stopped",
                "intent": "order",
                "category": [
                    {
                        "coding": [
                            {
                                "system": "http://terminology.hl7.org/CodeSystem/medicationrequest-category",
                                "code": "inpatient",
                                "display": "Inpatient"
                            }
                        ],
                        "text": "Inpatient"
                    }
                ],
                "medicationReference": {
                    "reference": "Medication/eb6eaobmzD1ziDGudUrJM9i6z8Kyyw-YAxIBdWNGSbLcFGDGU31sJcBArJoxARdU.3",
                    "display": "lidocaine (XYLOCAINE) external solution 4%"
                },
                "subject": {
                    "reference": "Patient/eYg3-1aJmCMq-umIIq2Njxw3",
                    "display": "Anesthesia, Abby"
                },
                "encounter": {
                    "reference": "Encounter/eq8b9H5iOvODTxzxW9Cywlg3",
                    "identifier": {
                        "use": "usual",
                        "system": "urn:oid:1.2.840.114350.1.13.0.1.7.3.698084.8",
                        "value": "11903"
                    },
                    "display": "Hospital Encounter"
                },
                "authoredOn": "2013-11-16T18:20:03Z",
                "requester": {
                    "reference": "Practitioner/eOyFJ.PiGBcbhr3T1oyJZ1A3",
                    "type": "Practitioner",
                    "display": "Physician Surgery, MD"
                },
                "recorder": {
                    "reference": "Practitioner/eUHWM5R81nV4SlA71j3Y7rA3",
                    "type": "Practitioner",
                    "display": "Circ Nurse Optime, RN"
                },
                "courseOfTherapyType": {
                    "coding": [
                        {
                            "system": "http://terminology.hl7.org/CodeSystem/medicationrequest-course-of-therapy",
                            "code": "acute",
                            "display": "Short course (acute) therapy"
                        }
                    ],
                    "text": "Short course (acute) therapy"
                },
                "dosageInstruction": [
                    {
                        "text": "As needed, mild pain, Starting Sat 11/16/13 at 1219, Intra-op",
                        "timing": {
                            "repeat": {
                                "boundsPeriod": {
                                    "start": "2013-11-16T18:19:00Z",
                                    "end": "2013-11-16T19:23:10Z"
                                },
                                "frequency": 1,
                                "period": 1,
                                "periodUnit": "d"
                            },
                            "code": {
                                "text": "As needed"
                            }
                        },
                        "asNeededBoolean": true
                    }
                ]
            },
            "search": {
                "mode": "match"
            }
        },
        {
            "link": [
                {
                    "relation": "self",
                    "url": "https://appmarket.epic.com/interconnect-amcurprd-oauth/api/FHIR/R4/MedicationRequest/ec8fHBVCGipbez8bLzKyyWQ3"
                }
            ],
            "fullUrl": "https://appmarket.epic.com/interconnect-amcurprd-oauth/api/FHIR/R4/MedicationRequest/ec8fHBVCGipbez8bLzKyyWQ3",
            "resource": {
                "resourceType": "MedicationRequest",
                "id": "ec8fHBVCGipbez8bLzKyyWQ3",
                "identifier": [
                    {
                        "use": "usual",
                        "system": "urn:oid:1.2.840.114350.1.13.0.1.7.2.798268",
                        "value": "895300"
                    }
                ],
                "status": "on-hold",
                "intent": "plan",
                "category": [
                    {
                        "coding": [
                            {
                                "system": "http://terminology.hl7.org/CodeSystem/medicationrequest-category",
                                "code": "community",
                                "display": "Community"
                            }
                        ],
                        "text": "Community"
                    }
                ],
                "reportedBoolean": true,
                "medicationReference": {
                    "reference": "Medication/ehXn2pxe72xALLwUJG4ILc5.S3SP6rBUOtGI0OCBgFH3Zcyrw01tBIOb5sidysRAf3",
                    "display": "FOSAMAX 40 MG PO TABS"
                },
                "subject": {
                    "reference": "Patient/eYg3-1aJmCMq-umIIq2Njxw3",
                    "display": "Anesthesia, Abby"
                },
                "encounter": {
                    "extension": [
                        {
                            "valueIdentifier": {
                                "use": "usual",
                                "system": "urn:oid:1.2.840.114350.1.13.0.1.7.3.698084.8",
                                "value": "11917"
                            },
                            "url": "http://open.epic.com/FHIR/StructureDefinition/extension/ce-encounter-id"
                        }
                    ],
                    "identifier": {
                        "use": "usual",
                        "system": "urn:oid:1.2.840.114350.1.13.0.1.7.3.698084.8",
                        "value": "11916"
                    },
                    "display": "Anesthesia"
                },
                "authoredOn": "2010-12-25",
                "requester": {
                    "extension": [
                        {
                            "valueCode": "unknown",
                            "url": "http://hl7.org/fhir/StructureDefinition/data-absent-reason"
                        }
                    ]
                },
                "recorder": {
                    "reference": "Practitioner/enHmcmrIOygs4mq-t6soebQ3",
                    "type": "Practitioner",
                    "display": "Anesthesiologist Anesthesia, MD"
                },
                "courseOfTherapyType": {
                    "coding": [
                        {
                            "system": "http://terminology.hl7.org/CodeSystem/medicationrequest-course-of-therapy",
                            "code": "acute",
                            "display": "Short course (acute) therapy"
                        }
                    ],
                    "text": "Short course (acute) therapy"
                },
                "dosageInstruction": [
                    {
                        "text": "Take 40 mg by mouth every morning (before breakfast)., Until Discontinued, Historical Med",
                        "patientInstruction": "Take 40 mg by mouth every morning (before breakfast).",
                        "timing": {
                            "repeat": {
                                "timeOfDay": [
                                    "07:30:00"
                                ]
                            },
                            "code": {
                                "text": "0730"
                            }
                        },
                        "asNeededBoolean": false,
                        "route": {
                            "coding": [
                                {
                                    "system": "http://snomed.info/sct",
                                    "code": "260548002",
                                    "display": "Oral (qualifier value)"
                                },
                                {
                                    "system": "urn:oid:1.2.840.114350.1.13.0.1.7.4.798268.7025",
                                    "code": "15",
                                    "display": "Oral"
                                }
                            ],
                            "text": "Oral"
                        },
                        "doseAndRate": [
                            {
                                "type": {
                                    "coding": [
                                        {
                                            "system": "http://epic.com/CodeSystem/dose-rate-type",
                                            "code": "ordered",
                                            "display": "ordered"
                                        }
                                    ],
                                    "text": "ordered"
                                },
                                "doseQuantity": {
                                    "value": 40,
                                    "unit": "mg",
                                    "system": "http://unitsofmeasure.org",
                                    "code": "mg"
                                }
                            }
                        ]
                    }
                ]
            },
            "search": {
                "mode": "match"
            }
        },
        {
            "link": [
                {
                    "relation": "self",
                    "url": "https://appmarket.epic.com/interconnect-amcurprd-oauth/api/FHIR/R4/MedicationRequest/ecdX2ewfH7wtYCVQE8qoKXQ3"
                }
            ],
            "fullUrl": "https://appmarket.epic.com/interconnect-amcurprd-oauth/api/FHIR/R4/MedicationRequest/ecdX2ewfH7wtYCVQE8qoKXQ3",
            "resource": {
                "resourceType": "MedicationRequest",
                "id": "ecdX2ewfH7wtYCVQE8qoKXQ3",
                "identifier": [
                    {
                        "use": "usual",
                        "system": "urn:oid:1.2.840.114350.1.13.0.1.7.2.798268",
                        "value": "895293"
                    }
                ],
                "status": "stopped",
                "intent": "order",
                "category": [
                    {
                        "coding": [
                            {
                                "system": "http://terminology.hl7.org/CodeSystem/medicationrequest-category",
                                "code": "outpatient",
                                "display": "Outpatient"
                            }
                        ],
                        "text": "Outpatient"
                    }
                ],
                "medicationReference": {
                    "reference": "Medication/eQT2sTcpCMDFsgwCwG2AzAn-WoG15QfoV.kykRXz7P-qv2jKvPyTrU7cYZW0m-HIL3",
                    "display": "rocuronium (ZEMURON) 10 mg/mL injection"
                },
                "subject": {
                    "reference": "Patient/eYg3-1aJmCMq-umIIq2Njxw3",
                    "display": "Anesthesia, Abby"
                },
                "encounter": {
                    "extension": [
                        {
                            "valueIdentifier": {
                                "use": "usual",
                                "system": "urn:oid:1.2.840.114350.1.13.0.1.7.3.698084.8",
                                "value": "11909"
                            },
                            "url": "http://open.epic.com/FHIR/StructureDefinition/extension/ce-encounter-id"
                        }
                    ],
                    "identifier": {
                        "use": "usual",
                        "system": "urn:oid:1.2.840.114350.1.13.0.1.7.3.698084.8",
                        "value": "11907"
                    },
                    "display": "Anesthesia"
                },
                "authoredOn": "2013-11-13T23:09:39Z",
                "requester": {
                    "reference": "Practitioner/enHmcmrIOygs4mq-t6soebQ3",
                    "type": "Practitioner",
                    "display": "Anesthesiologist Anesthesia, MD"
                },
                "recorder": {
                    "reference": "Practitioner/enHmcmrIOygs4mq-t6soebQ3",
                    "type": "Practitioner",
                    "display": "Anesthesiologist Anesthesia, MD"
                },
                "courseOfTherapyType": {
                    "coding": [
                        {
                            "system": "http://terminology.hl7.org/CodeSystem/medicationrequest-course-of-therapy",
                            "code": "acute",
                            "display": "Short course (acute) therapy"
                        }
                    ],
                    "text": "Short course (acute) therapy"
                },
                "dosageInstruction": [
                    {
                        "text": "As needed, Starting Wed 11/13/13 at 1708, Anesthesia Intra-op",
                        "timing": {
                            "repeat": {
                                "boundsPeriod": {
                                    "start": "2013-11-13T23:08:00Z",
                                    "end": "2013-11-28T15:49:26Z"
                                },
                                "frequency": 1,
                                "period": 1,
                                "periodUnit": "d"
                            },
                            "code": {
                                "text": "As needed"
                            }
                        },
                        "asNeededBoolean": true
                    }
                ]
            },
            "search": {
                "mode": "match"
            }
        },
        {
            "link": [
                {
                    "relation": "self",
                    "url": "https://appmarket.epic.com/interconnect-amcurprd-oauth/api/FHIR/R4/MedicationRequest/eduG4R5DhDtMLc51P94hIPg3"
                }
            ],
            "fullUrl": "https://appmarket.epic.com/interconnect-amcurprd-oauth/api/FHIR/R4/MedicationRequest/eduG4R5DhDtMLc51P94hIPg3",
            "resource": {
                "resourceType": "MedicationRequest",
                "id": "eduG4R5DhDtMLc51P94hIPg3",
                "identifier": [
                    {
                        "use": "usual",
                        "system": "urn:oid:1.2.840.114350.1.13.0.1.7.2.798268",
                        "value": "895273"
                    }
                ],
                "status": "stopped",
                "intent": "order",
                "category": [
                    {
                        "coding": [
                            {
                                "system": "http://terminology.hl7.org/CodeSystem/medicationrequest-category",
                                "code": "inpatient",
                                "display": "Inpatient"
                            }
                        ],
                        "text": "Inpatient"
                    }
                ],
                "medicationReference": {
                    "reference": "Medication/ersqXjOusVJslybwnACORsNXUsgFO2F-.etHS32yBxlC41gtV5czGdMBbo18p37u23",
                    "display": "bupivacaine (MARCAINE) injection 0.25%"
                },
                "subject": {
                    "reference": "Patient/eYg3-1aJmCMq-umIIq2Njxw3",
                    "display": "Anesthesia, Abby"
                },
                "encounter": {
                    "reference": "Encounter/eq8b9H5iOvODTxzxW9Cywlg3",
                    "identifier": {
                        "use": "usual",
                        "system": "urn:oid:1.2.840.114350.1.13.0.1.7.3.698084.8",
                        "value": "11903"
                    },
                    "display": "Hospital Encounter"
                },
                "authoredOn": "2013-11-16T17:30:59Z",
                "requester": {
                    "reference": "Practitioner/eOyFJ.PiGBcbhr3T1oyJZ1A3",
                    "type": "Practitioner",
                    "display": "Physician Surgery, MD"
                },
                "recorder": {
                    "reference": "Practitioner/eUHWM5R81nV4SlA71j3Y7rA3",
                    "type": "Practitioner",
                    "display": "Circ Nurse Optime, RN"
                },
                "courseOfTherapyType": {
                    "coding": [
                        {
                            "system": "http://terminology.hl7.org/CodeSystem/medicationrequest-course-of-therapy",
                            "code": "acute",
                            "display": "Short course (acute) therapy"
                        }
                    ],
                    "text": "Short course (acute) therapy"
                },
                "dosageInstruction": [
                    {
                        "text": "As needed, Starting Sat 11/16/13 at 1130, Intra-op",
                        "timing": {
                            "repeat": {
                                "boundsPeriod": {
                                    "start": "2013-11-16T17:30:00Z",
                                    "end": "2013-11-16T19:23:10Z"
                                },
                                "frequency": 1,
                                "period": 1,
                                "periodUnit": "d"
                            },
                            "code": {
                                "text": "As needed"
                            }
                        },
                        "asNeededBoolean": true
                    }
                ]
            },
            "search": {
                "mode": "match"
            }
        },
        {
            "link": [
                {
                    "relation": "self",
                    "url": "https://appmarket.epic.com/interconnect-amcurprd-oauth/api/FHIR/R4/MedicationRequest/ee9Rcg4ZZAYe3X7bikTLtWA3"
                }
            ],
            "fullUrl": "https://appmarket.epic.com/interconnect-amcurprd-oauth/api/FHIR/R4/MedicationRequest/ee9Rcg4ZZAYe3X7bikTLtWA3",
            "resource": {
                "resourceType": "MedicationRequest",
                "id": "ee9Rcg4ZZAYe3X7bikTLtWA3",
                "identifier": [
                    {
                        "use": "usual",
                        "system": "urn:oid:1.2.840.114350.1.13.0.1.7.2.798268",
                        "value": "895291"
                    }
                ],
                "status": "stopped",
                "intent": "order",
                "category": [
                    {
                        "coding": [
                            {
                                "system": "http://terminology.hl7.org/CodeSystem/medicationrequest-category",
                                "code": "outpatient",
                                "display": "Outpatient"
                            }
                        ],
                        "text": "Outpatient"
                    }
                ],
                "medicationReference": {
                    "reference": "Medication/eSE.lzw6WwR8RkK6lleDxF7HQ9PdVDRMvWBUS0VnboC1AV2QXfW3kXVBqAkVj6-PZ3",
                    "display": "ceFAZolin (ANCEF) vial 1 g"
                },
                "subject": {
                    "reference": "Patient/eYg3-1aJmCMq-umIIq2Njxw3",
                    "display": "Anesthesia, Abby"
                },
                "encounter": {
                    "extension": [
                        {
                            "valueIdentifier": {
                                "use": "usual",
                                "system": "urn:oid:1.2.840.114350.1.13.0.1.7.3.698084.8",
                                "value": "11909"
                            },
                            "url": "http://open.epic.com/FHIR/StructureDefinition/extension/ce-encounter-id"
                        }
                    ],
                    "identifier": {
                        "use": "usual",
                        "system": "urn:oid:1.2.840.114350.1.13.0.1.7.3.698084.8",
                        "value": "11907"
                    },
                    "display": "Anesthesia"
                },
                "authoredOn": "2013-11-13T23:06:44Z",
                "requester": {
                    "reference": "Practitioner/enHmcmrIOygs4mq-t6soebQ3",
                    "type": "Practitioner",
                    "display": "Anesthesiologist Anesthesia, MD"
                },
                "recorder": {
                    "reference": "Practitioner/enHmcmrIOygs4mq-t6soebQ3",
                    "type": "Practitioner",
                    "display": "Anesthesiologist Anesthesia, MD"
                },
                "courseOfTherapyType": {
                    "coding": [
                        {
                            "system": "http://terminology.hl7.org/CodeSystem/medicationrequest-course-of-therapy",
                            "code": "acute",
                            "display": "Short course (acute) therapy"
                        }
                    ],
                    "text": "Short course (acute) therapy"
                },
                "dosageInstruction": [
                    {
                        "text": "Intravenous, As needed, Starting Wed 11/13/13 at 1700, Anesthesia Intra-op",
                        "timing": {
                            "repeat": {
                                "boundsPeriod": {
                                    "start": "2013-11-13T23:00:00Z",
                                    "end": "2013-11-28T15:49:26Z"
                                },
                                "frequency": 1,
                                "period": 1,
                                "periodUnit": "d"
                            },
                            "code": {
                                "text": "As needed"
                            }
                        },
                        "asNeededBoolean": true,
                        "route": {
                            "coding": [
                                {
                                    "system": "http://snomed.info/sct",
                                    "code": "418114005",
                                    "display": "Intravenous central route (qualifier value)"
                                },
                                {
                                    "system": "urn:oid:1.2.840.114350.1.13.0.1.7.4.798268.7025",
                                    "code": "11",
                                    "display": "Intravenous"
                                }
                            ],
                            "text": "Intravenous"
                        }
                    }
                ]
            },
            "search": {
                "mode": "match"
            }
        },
        {
            "link": [
                {
                    "relation": "self",
                    "url": "https://appmarket.epic.com/interconnect-amcurprd-oauth/api/FHIR/R4/MedicationRequest/eegYxpXdywAj8bHUO7CisEg3"
                }
            ],
            "fullUrl": "https://appmarket.epic.com/interconnect-amcurprd-oauth/api/FHIR/R4/MedicationRequest/eegYxpXdywAj8bHUO7CisEg3",
            "resource": {
                "resourceType": "MedicationRequest",
                "id": "eegYxpXdywAj8bHUO7CisEg3",
                "identifier": [
                    {
                        "use": "usual",
                        "system": "urn:oid:1.2.840.114350.1.13.0.1.7.2.798268",
                        "value": "895271"
                    }
                ],
                "status": "on-hold",
                "intent": "plan",
                "category": [
                    {
                        "coding": [
                            {
                                "system": "http://terminology.hl7.org/CodeSystem/medicationrequest-category",
                                "code": "community",
                                "display": "Community"
                            }
                        ],
                        "text": "Community"
                    }
                ],
                "reportedBoolean": true,
                "medicationReference": {
                    "reference": "Medication/eCVUWATktdzbe4twTCwnlM0IbnaJ60nbj3zG1PR6mCmFAI.cAPFapkxZZtnCIF9DD3",
                    "display": "loratadine (CLARITIN) tablet 10 mg"
                },
                "subject": {
                    "reference": "Patient/eYg3-1aJmCMq-umIIq2Njxw3",
                    "display": "Anesthesia, Abby"
                },
                "encounter": {
                    "reference": "Encounter/eq8b9H5iOvODTxzxW9Cywlg3",
                    "identifier": {
                        "use": "usual",
                        "system": "urn:oid:1.2.840.114350.1.13.0.1.7.3.698084.8",
                        "value": "11903"
                    },
                    "display": "Hospital Encounter"
                },
                "authoredOn": "2013-11-16T14:15:05Z",
                "requester": {
                    "extension": [
                        {
                            "valueCode": "unknown",
                            "url": "http://hl7.org/fhir/StructureDefinition/data-absent-reason"
                        }
                    ]
                },
                "recorder": {
                    "reference": "Practitioner/e7NvHbT1yipP-LcFkHyGq0g3",
                    "type": "Practitioner",
                    "display": "Pre-Procedure Nurse Optime, RN"
                },
                "courseOfTherapyType": {
                    "coding": [
                        {
                            "system": "http://terminology.hl7.org/CodeSystem/medicationrequest-course-of-therapy",
                            "code": "acute",
                            "display": "Short course (acute) therapy"
                        }
                    ],
                    "text": "Short course (acute) therapy"
                },
                "dosageInstruction": [
                    {
                        "text": "Take 10 mg by mouth daily.  , Until Discontinued, Historical Med",
                        "patientInstruction": "Take 10 mg by mouth daily.  ",
                        "timing": {
                            "repeat": {
                                "timeOfDay": [
                                    "09:00:00"
                                ]
                            },
                            "code": {
                                "text": "0900"
                            }
                        },
                        "asNeededBoolean": false,
                        "route": {
                            "coding": [
                                {
                                    "system": "http://snomed.info/sct",
                                    "code": "260548002",
                                    "display": "Oral (qualifier value)"
                                },
                                {
                                    "system": "urn:oid:1.2.840.114350.1.13.0.1.7.4.798268.7025",
                                    "code": "15",
                                    "display": "Oral"
                                }
                            ],
                            "text": "Oral"
                        },
                        "doseAndRate": [
                            {
                                "type": {
                                    "coding": [
                                        {
                                            "system": "http://epic.com/CodeSystem/dose-rate-type",
                                            "code": "ordered",
                                            "display": "ordered"
                                        }
                                    ],
                                    "text": "ordered"
                                },
                                "doseQuantity": {
                                    "value": 10,
                                    "unit": "mg",
                                    "system": "http://unitsofmeasure.org",
                                    "code": "mg"
                                }
                            }
                        ]
                    }
                ]
            },
            "search": {
                "mode": "match"
            }
        },
        {
            "link": [
                {
                    "relation": "self",
                    "url": "https://appmarket.epic.com/interconnect-amcurprd-oauth/api/FHIR/R4/MedicationRequest/ehazys6gAUnfEPGVxQ1GhaA3"
                }
            ],
            "fullUrl": "https://appmarket.epic.com/interconnect-amcurprd-oauth/api/FHIR/R4/MedicationRequest/ehazys6gAUnfEPGVxQ1GhaA3",
            "resource": {
                "resourceType": "MedicationRequest",
                "id": "ehazys6gAUnfEPGVxQ1GhaA3",
                "identifier": [
                    {
                        "use": "usual",
                        "system": "urn:oid:1.2.840.114350.1.13.0.1.7.2.798268",
                        "value": "895272"
                    }
                ],
                "status": "on-hold",
                "intent": "plan",
                "category": [
                    {
                        "coding": [
                            {
                                "system": "http://terminology.hl7.org/CodeSystem/medicationrequest-category",
                                "code": "community",
                                "display": "Community"
                            }
                        ],
                        "text": "Community"
                    }
                ],
                "reportedBoolean": true,
                "medicationReference": {
                    "reference": "Medication/e5n1DBvyRILt13hLuxJaoDxUE7wfowlebUXiYo5XSApgscCvByQzXXCL15YddfkCr3",
                    "display": "fish oil-omega-3 fatty acids capsule"
                },
                "subject": {
                    "reference": "Patient/eYg3-1aJmCMq-umIIq2Njxw3",
                    "display": "Anesthesia, Abby"
                },
                "encounter": {
                    "reference": "Encounter/eq8b9H5iOvODTxzxW9Cywlg3",
                    "identifier": {
                        "use": "usual",
                        "system": "urn:oid:1.2.840.114350.1.13.0.1.7.3.698084.8",
                        "value": "11903"
                    },
                    "display": "Hospital Encounter"
                },
                "authoredOn": "2013-11-16T15:18:47Z",
                "requester": {
                    "extension": [
                        {
                            "valueCode": "unknown",
                            "url": "http://hl7.org/fhir/StructureDefinition/data-absent-reason"
                        }
                    ]
                },
                "recorder": {
                    "reference": "Practitioner/eOmLvq7u35Wq0c9hYKq6BVsqbU5UWD1NzuTwqe-fasN43",
                    "type": "Practitioner",
                    "display": "Crna Anesthesia, CRNA"
                },
                "courseOfTherapyType": {
                    "coding": [
                        {
                            "system": "http://terminology.hl7.org/CodeSystem/medicationrequest-course-of-therapy",
                            "code": "acute",
                            "display": "Short course (acute) therapy"
                        }
                    ],
                    "text": "Short course (acute) therapy"
                },
                "dosageInstruction": [
                    {
                        "text": "Take 2 g by mouth daily.  , Until Discontinued, Historical Med",
                        "patientInstruction": "Take 2 g by mouth daily.  ",
                        "timing": {
                            "repeat": {
                                "timeOfDay": [
                                    "09:00:00"
                                ]
                            },
                            "code": {
                                "text": "0900"
                            }
                        },
                        "asNeededBoolean": false,
                        "route": {
                            "coding": [
                                {
                                    "system": "http://snomed.info/sct",
                                    "code": "260548002",
                                    "display": "Oral (qualifier value)"
                                },
                                {
                                    "system": "urn:oid:1.2.840.114350.1.13.0.1.7.4.798268.7025",
                                    "code": "15",
                                    "display": "Oral"
                                }
                            ],
                            "text": "Oral"
                        },
                        "doseAndRate": [
                            {
                                "type": {
                                    "coding": [
                                        {
                                            "system": "http://epic.com/CodeSystem/dose-rate-type",
                                            "code": "ordered",
                                            "display": "ordered"
                                        }
                                    ],
                                    "text": "ordered"
                                },
                                "doseQuantity": {
                                    "value": 2,
                                    "unit": "g",
                                    "system": "http://unitsofmeasure.org",
                                    "code": "g"
                                }
                            }
                        ]
                    }
                ]
            },
            "search": {
                "mode": "match"
            }
        },
        {
            "link": [
                {
                    "relation": "self",
                    "url": "https://appmarket.epic.com/interconnect-amcurprd-oauth/api/FHIR/R4/MedicationRequest/ejMSTCr72lP2grOb69q6iEQ3"
                }
            ],
            "fullUrl": "https://appmarket.epic.com/interconnect-amcurprd-oauth/api/FHIR/R4/MedicationRequest/ejMSTCr72lP2grOb69q6iEQ3",
            "resource": {
                "resourceType": "MedicationRequest",
                "id": "ejMSTCr72lP2grOb69q6iEQ3",
                "identifier": [
                    {
                        "use": "usual",
                        "system": "urn:oid:1.2.840.114350.1.13.0.1.7.2.798268",
                        "value": "895294"
                    }
                ],
                "status": "stopped",
                "intent": "order",
                "category": [
                    {
                        "coding": [
                            {
                                "system": "http://terminology.hl7.org/CodeSystem/medicationrequest-category",
                                "code": "outpatient",
                                "display": "Outpatient"
                            }
                        ],
                        "text": "Outpatient"
                    }
                ],
                "medicationReference": {
                    "reference": "Medication/e2yetzftgV8tYBGyh4DAhSAPtxsgV2aWoWv5kIT7PQLe7UwW1hQ6xDo9ew4vAF9qz3",
                    "display": "succinylcholine (ANECTINE) 20 mg/mL injection"
                },
                "subject": {
                    "reference": "Patient/eYg3-1aJmCMq-umIIq2Njxw3",
                    "display": "Anesthesia, Abby"
                },
                "encounter": {
                    "extension": [
                        {
                            "valueIdentifier": {
                                "use": "usual",
                                "system": "urn:oid:1.2.840.114350.1.13.0.1.7.3.698084.8",
                                "value": "11909"
                            },
                            "url": "http://open.epic.com/FHIR/StructureDefinition/extension/ce-encounter-id"
                        }
                    ],
                    "identifier": {
                        "use": "usual",
                        "system": "urn:oid:1.2.840.114350.1.13.0.1.7.3.698084.8",
                        "value": "11907"
                    },
                    "display": "Anesthesia"
                },
                "authoredOn": "2013-11-13T23:09:50Z",
                "requester": {
                    "reference": "Practitioner/enHmcmrIOygs4mq-t6soebQ3",
                    "type": "Practitioner",
                    "display": "Anesthesiologist Anesthesia, MD"
                },
                "recorder": {
                    "reference": "Practitioner/enHmcmrIOygs4mq-t6soebQ3",
                    "type": "Practitioner",
                    "display": "Anesthesiologist Anesthesia, MD"
                },
                "courseOfTherapyType": {
                    "coding": [
                        {
                            "system": "http://terminology.hl7.org/CodeSystem/medicationrequest-course-of-therapy",
                            "code": "acute",
                            "display": "Short course (acute) therapy"
                        }
                    ],
                    "text": "Short course (acute) therapy"
                },
                "dosageInstruction": [
                    {
                        "text": "As needed, Starting Wed 11/13/13 at 1708, Anesthesia Intra-op",
                        "timing": {
                            "repeat": {
                                "boundsPeriod": {
                                    "start": "2013-11-13T23:08:00Z",
                                    "end": "2013-11-28T15:49:26Z"
                                },
                                "frequency": 1,
                                "period": 1,
                                "periodUnit": "d"
                            },
                            "code": {
                                "text": "As needed"
                            }
                        },
                        "asNeededBoolean": true
                    }
                ]
            },
            "search": {
                "mode": "match"
            }
        },
        {
            "link": [
                {
                    "relation": "self",
                    "url": "https://appmarket.epic.com/interconnect-amcurprd-oauth/api/FHIR/R4/MedicationRequest/eyyk-t.1G1UFFpXBF3P2VqQ3"
                }
            ],
            "fullUrl": "https://appmarket.epic.com/interconnect-amcurprd-oauth/api/FHIR/R4/MedicationRequest/eyyk-t.1G1UFFpXBF3P2VqQ3",
            "resource": {
                "resourceType": "MedicationRequest",
                "id": "eyyk-t.1G1UFFpXBF3P2VqQ3",
                "identifier": [
                    {
                        "use": "usual",
                        "system": "urn:oid:1.2.840.114350.1.13.0.1.7.2.798268",
                        "value": "895270"
                    }
                ],
                "status": "stopped",
                "intent": "order",
                "category": [
                    {
                        "coding": [
                            {
                                "system": "http://terminology.hl7.org/CodeSystem/medicationrequest-category",
                                "code": "outpatient",
                                "display": "Outpatient"
                            }
                        ],
                        "text": "Outpatient"
                    }
                ],
                "medicationReference": {
                    "reference": "Medication/eYFoIiqfhMx6.fNf24IZkOdnnt8uB01rS8DL4kzf8Q.mJNgP7WLgG2uC4mMX10Bif3",
                    "display": "midazolam (VERSED) injection 1 mg/mL"
                },
                "subject": {
                    "reference": "Patient/eYg3-1aJmCMq-umIIq2Njxw3",
                    "display": "Anesthesia, Abby"
                },
                "encounter": {
                    "extension": [
                        {
                            "valueIdentifier": {
                                "use": "usual",
                                "system": "urn:oid:1.2.840.114350.1.13.0.1.7.3.698084.8",
                                "value": "11898"
                            },
                            "url": "http://open.epic.com/FHIR/StructureDefinition/extension/ce-encounter-id"
                        }
                    ],
                    "identifier": {
                        "use": "usual",
                        "system": "urn:oid:1.2.840.114350.1.13.0.1.7.3.698084.8",
                        "value": "11897"
                    },
                    "display": "Anesthesia"
                },
                "authoredOn": "2013-11-16T18:48:56Z",
                "requester": {
                    "reference": "Practitioner/enHmcmrIOygs4mq-t6soebQ3",
                    "type": "Practitioner",
                    "display": "Anesthesiologist Anesthesia, MD"
                },
                "recorder": {
                    "reference": "Practitioner/enHmcmrIOygs4mq-t6soebQ3",
                    "type": "Practitioner",
                    "display": "Anesthesiologist Anesthesia, MD"
                },
                "courseOfTherapyType": {
                    "coding": [
                        {
                            "system": "http://terminology.hl7.org/CodeSystem/medicationrequest-course-of-therapy",
                            "code": "acute",
                            "display": "Short course (acute) therapy"
                        }
                    ],
                    "text": "Short course (acute) therapy"
                },
                "dosageInstruction": [
                    {
                        "text": "Intravenous, As needed, anxiety, Starting Sat 11/16/13 at 1004, Anesthesia Intra-op",
                        "timing": {
                            "repeat": {
                                "boundsPeriod": {
                                    "start": "2013-11-16T16:04:00Z",
                                    "end": "2013-11-16T18:50:46Z"
                                },
                                "frequency": 1,
                                "period": 1,
                                "periodUnit": "d"
                            },
                            "code": {
                                "text": "As needed"
                            }
                        },
                        "asNeededBoolean": true,
                        "route": {
                            "coding": [
                                {
                                    "system": "http://snomed.info/sct",
                                    "code": "418114005",
                                    "display": "Intravenous central route (qualifier value)"
                                },
                                {
                                    "system": "urn:oid:1.2.840.114350.1.13.0.1.7.4.798268.7025",
                                    "code": "11",
                                    "display": "Intravenous"
                                }
                            ],
                            "text": "Intravenous"
                        }
                    }
                ]
            },
            "search": {
                "mode": "match"
            }
        },
        {
            "link": [
                {
                    "relation": "self",
                    "url": "https://appmarket.epic.com/interconnect-amcurprd-oauth/api/FHIR/R4/MedicationRequest/ezy-pZzxfrE-SGOcwrmuHLg3"
                }
            ],
            "fullUrl": "https://appmarket.epic.com/interconnect-amcurprd-oauth/api/FHIR/R4/MedicationRequest/ezy-pZzxfrE-SGOcwrmuHLg3",
            "resource": {
                "resourceType": "MedicationRequest",
                "id": "ezy-pZzxfrE-SGOcwrmuHLg3",
                "identifier": [
                    {
                        "use": "usual",
                        "system": "urn:oid:1.2.840.114350.1.13.0.1.7.2.798268",
                        "value": "895274"
                    }
                ],
                "status": "stopped",
                "intent": "order",
                "category": [
                    {
                        "coding": [
                            {
                                "system": "http://terminology.hl7.org/CodeSystem/medicationrequest-category",
                                "code": "inpatient",
                                "display": "Inpatient"
                            }
                        ],
                        "text": "Inpatient"
                    }
                ],
                "medicationReference": {
                    "reference": "Medication/eqqOnYRQjKbdm4rltcYFMpZKBSuIj7eAyD81zgYpPQji8mmmqbJBTvZwYaarExgGa3",
                    "display": "ceFAZolin (ANCEF) IVPB 1 g in 50 mL (premix)"
                },
                "subject": {
                    "reference": "Patient/eYg3-1aJmCMq-umIIq2Njxw3",
                    "display": "Anesthesia, Abby"
                },
                "encounter": {
                    "reference": "Encounter/eq8b9H5iOvODTxzxW9Cywlg3",
                    "identifier": {
                        "use": "usual",
                        "system": "urn:oid:1.2.840.114350.1.13.0.1.7.3.698084.8",
                        "value": "11903"
                    },
                    "display": "Hospital Encounter"
                },
                "authoredOn": "2013-11-16T17:33:55Z",
                "requester": {
                    "reference": "Practitioner/eOyFJ.PiGBcbhr3T1oyJZ1A3",
                    "type": "Practitioner",
                    "display": "Physician Surgery, MD"
                },
                "recorder": {
                    "reference": "Practitioner/eUHWM5R81nV4SlA71j3Y7rA3",
                    "type": "Practitioner",
                    "display": "Circ Nurse Optime, RN"
                },
                "courseOfTherapyType": {
                    "coding": [
                        {
                            "system": "http://terminology.hl7.org/CodeSystem/medicationrequest-course-of-therapy",
                            "code": "acute",
                            "display": "Short course (acute) therapy"
                        }
                    ],
                    "text": "Short course (acute) therapy"
                },
                "dosageInstruction": [
                    {
                        "text": "for 30 Minutes, As needed, Starting Sat 11/16/13 at 1133, Intra-op",
                        "timing": {
                            "repeat": {
                                "boundsPeriod": {
                                    "start": "2013-11-16T17:33:00Z",
                                    "end": "2013-11-16T19:23:10Z"
                                },
                                "duration": 30,
                                "durationUnit": "min",
                                "frequency": 1,
                                "period": 1,
                                "periodUnit": "d"
                            },
                            "code": {
                                "text": "As needed"
                            }
                        },
                        "asNeededBoolean": true
                    }
                ]
            },
            "search": {
                "mode": "match"
            }
        },
        {
            "link": [
                {
                    "relation": "self",
                    "url": "https://appmarket.epic.com/interconnect-amcurprd-oauth/api/FHIR/R4/Medication/e.IZlEDKZ-g4tmlTgs2a0WLh7UCPzuiIWqnBWzqI0soXiloJwsO.uDUiMhB34u-u83"
                }
            ],
            "fullUrl": "https://appmarket.epic.com/interconnect-amcurprd-oauth/api/FHIR/R4/Medication/e.IZlEDKZ-g4tmlTgs2a0WLh7UCPzuiIWqnBWzqI0soXiloJwsO.uDUiMhB34u-u83",
            "resource": {
                "resourceType": "Medication",
                "id": "e.IZlEDKZ-g4tmlTgs2a0WLh7UCPzuiIWqnBWzqI0soXiloJwsO.uDUiMhB34u-u83",
                "code": {
                    "coding": [
                        {
                            "system": "urn:oid:2.16.840.1.113883.6.253",
                            "code": "8232"
                        },
                        {
                            "system": "urn:oid:2.16.840.1.113883.6.68",
                            "code": "65100025102005"
                        },
                        {
                            "system": "urn:oid:2.16.840.1.113883.6.162",
                            "code": "03549"
                        },
                        {
                            "system": "http://www.nlm.nih.gov/research/umls/rxnorm",
                            "code": "4337"
                        },
                        {
                            "system": "http://www.nlm.nih.gov/research/umls/rxnorm",
                            "code": "142436"
                        },
                        {
                            "system": "http://www.nlm.nih.gov/research/umls/rxnorm",
                            "code": "1735006"
                        },
                        {
                            "system": "http://www.nlm.nih.gov/research/umls/rxnorm",
                            "code": "1735007"
                        },
                        {
                            "system": "http://www.nlm.nih.gov/research/umls/rxnorm",
                            "code": "1735008"
                        }
                    ],
                    "text": "fentaNYL (SUBLIMAZE) injection"
                },
                "form": {
                    "coding": [
                        {
                            "system": "urn:oid:1.2.840.114350.1.13.0.1.7.4.698288.310",
                            "code": "SOLN",
                            "display": "solution"
                        }
                    ],
                    "text": "solution"
                },
                "ingredient": [
                    {
                        "itemCodeableConcept": {
                            "coding": [
                                {
                                    "system": "urn:oid:2.16.840.1.113883.6.253",
                                    "code": "8232"
                                },
                                {
                                    "system": "urn:oid:2.16.840.1.113883.6.68",
                                    "code": "65100025102005"
                                },
                                {
                                    "system": "urn:oid:2.16.840.1.113883.6.162",
                                    "code": "03549"
                                },
                                {
                                    "system": "http://www.nlm.nih.gov/research/umls/rxnorm",
                                    "code": "4337"
                                },
                                {
                                    "system": "http://www.nlm.nih.gov/research/umls/rxnorm",
                                    "code": "142436"
                                },
                                {
                                    "system": "http://www.nlm.nih.gov/research/umls/rxnorm",
                                    "code": "1735006"
                                },
                                {
                                    "system": "http://www.nlm.nih.gov/research/umls/rxnorm",
                                    "code": "1735007"
                                },
                                {
                                    "system": "http://www.nlm.nih.gov/research/umls/rxnorm",
                                    "code": "1735008"
                                }
                            ],
                            "text": "fentaNYL (SUBLIMAZE) injection"
                        },
                        "strength": {
                            "numerator": {
                                "value": 0.05,
                                "unit": "MG/ML",
                                "system": "http://unitsofmeasure.org",
                                "code": "mg/mL"
                            },
                            "denominator": {
                                "value": 0.05,
                                "unit": "MG/ML",
                                "system": "http://unitsofmeasure.org",
                                "code": "mg/mL"
                            }
                        }
                    }
                ]
            },
            "search": {
                "mode": "include"
            }
        },
        {
            "link": [
                {
                    "relation": "self",
                    "url": "https://appmarket.epic.com/interconnect-amcurprd-oauth/api/FHIR/R4/Medication/e2yetzftgV8tYBGyh4DAhSAPtxsgV2aWoWv5kIT7PQLe7UwW1hQ6xDo9ew4vAF9qz3"
                }
            ],
            "fullUrl": "https://appmarket.epic.com/interconnect-amcurprd-oauth/api/FHIR/R4/Medication/e2yetzftgV8tYBGyh4DAhSAPtxsgV2aWoWv5kIT7PQLe7UwW1hQ6xDo9ew4vAF9qz3",
            "resource": {
                "resourceType": "Medication",
                "id": "e2yetzftgV8tYBGyh4DAhSAPtxsgV2aWoWv5kIT7PQLe7UwW1hQ6xDo9ew4vAF9qz3",
                "code": {
                    "coding": [
                        {
                            "system": "urn:oid:2.16.840.1.113883.6.253",
                            "code": "20428"
                        },
                        {
                            "system": "urn:oid:2.16.840.1.113883.6.68",
                            "code": "74100010102005"
                        },
                        {
                            "system": "urn:oid:2.16.840.1.113883.6.162",
                            "code": "03909"
                        },
                        {
                            "system": "http://www.nlm.nih.gov/research/umls/rxnorm",
                            "code": "3565"
                        },
                        {
                            "system": "http://www.nlm.nih.gov/research/umls/rxnorm",
                            "code": "10154"
                        },
                        {
                            "system": "http://www.nlm.nih.gov/research/umls/rxnorm",
                            "code": "1594589"
                        }
                    ],
                    "text": "succinylcholine (ANECTINE) 20 mg/mL injection"
                },
                "form": {
                    "coding": [
                        {
                            "system": "urn:oid:1.2.840.114350.1.13.0.1.7.4.698288.310",
                            "code": "SOLN",
                            "display": "solution"
                        }
                    ],
                    "text": "solution"
                },
                "ingredient": [
                    {
                        "itemCodeableConcept": {
                            "coding": [
                                {
                                    "system": "urn:oid:2.16.840.1.113883.6.253",
                                    "code": "20428"
                                },
                                {
                                    "system": "urn:oid:2.16.840.1.113883.6.68",
                                    "code": "74100010102005"
                                },
                                {
                                    "system": "urn:oid:2.16.840.1.113883.6.162",
                                    "code": "03909"
                                },
                                {
                                    "system": "http://www.nlm.nih.gov/research/umls/rxnorm",
                                    "code": "3565"
                                },
                                {
                                    "system": "http://www.nlm.nih.gov/research/umls/rxnorm",
                                    "code": "10154"
                                },
                                {
                                    "system": "http://www.nlm.nih.gov/research/umls/rxnorm",
                                    "code": "1594589"
                                }
                            ],
                            "text": "succinylcholine (ANECTINE) 20 mg/mL injection"
                        },
                        "strength": {
                            "numerator": {
                                "value": 20,
                                "unit": "MG/ML",
                                "system": "http://unitsofmeasure.org",
                                "code": "mg/mL"
                            },
                            "denominator": {
                                "value": 20,
                                "unit": "MG/ML",
                                "system": "http://unitsofmeasure.org",
                                "code": "mg/mL"
                            }
                        }
                    }
                ]
            },
            "search": {
                "mode": "include"
            }
        },
        {
            "link": [
                {
                    "relation": "self",
                    "url": "https://appmarket.epic.com/interconnect-amcurprd-oauth/api/FHIR/R4/Medication/e5n1DBvyRILt13hLuxJaoDxUE7wfowlebUXiYo5XSApgscCvByQzXXCL15YddfkCr3"
                }
            ],
            "fullUrl": "https://appmarket.epic.com/interconnect-amcurprd-oauth/api/FHIR/R4/Medication/e5n1DBvyRILt13hLuxJaoDxUE7wfowlebUXiYo5XSApgscCvByQzXXCL15YddfkCr3",
            "resource": {
                "resourceType": "Medication",
                "id": "e5n1DBvyRILt13hLuxJaoDxUE7wfowlebUXiYo5XSApgscCvByQzXXCL15YddfkCr3",
                "code": {
                    "coding": [
                        {
                            "system": "urn:oid:2.16.840.1.113883.6.253",
                            "code": "29217"
                        },
                        {
                            "system": "urn:oid:2.16.840.1.113883.6.68",
                            "code": "80500030000190"
                        },
                        {
                            "system": "http://www.nlm.nih.gov/research/umls/rxnorm",
                            "code": "4301"
                        },
                        {
                            "system": "http://www.nlm.nih.gov/research/umls/rxnorm",
                            "code": "41967"
                        },
                        {
                            "system": "http://www.nlm.nih.gov/research/umls/rxnorm",
                            "code": "199907"
                        },
                        {
                            "system": "http://www.nlm.nih.gov/research/umls/rxnorm",
                            "code": "484348"
                        },
                        {
                            "system": "http://www.nlm.nih.gov/research/umls/rxnorm",
                            "code": "577208"
                        },
                        {
                            "system": "urn:oid:2.16.840.1.113883.6.162",
                            "code": "04746"
                        }
                    ],
                    "text": "fish oil-omega-3 fatty acids capsule"
                },
                "form": {
                    "coding": [
                        {
                            "system": "urn:oid:1.2.840.114350.1.13.0.1.7.4.698288.310",
                            "code": "CAPS",
                            "display": "capsule"
                        }
                    ],
                    "text": "capsule"
                },
                "ingredient": [
                    {
                        "itemCodeableConcept": {
                            "coding": [
                                {
                                    "system": "urn:oid:2.16.840.1.113883.6.253",
                                    "code": "29217"
                                },
                                {
                                    "system": "urn:oid:2.16.840.1.113883.6.68",
                                    "code": "80500030000190"
                                },
                                {
                                    "system": "http://www.nlm.nih.gov/research/umls/rxnorm",
                                    "code": "4301"
                                },
                                {
                                    "system": "http://www.nlm.nih.gov/research/umls/rxnorm",
                                    "code": "41967"
                                },
                                {
                                    "system": "http://www.nlm.nih.gov/research/umls/rxnorm",
                                    "code": "199907"
                                },
                                {
                                    "system": "http://www.nlm.nih.gov/research/umls/rxnorm",
                                    "code": "484348"
                                },
                                {
                                    "system": "http://www.nlm.nih.gov/research/umls/rxnorm",
                                    "code": "577208"
                                },
                                {
                                    "system": "urn:oid:2.16.840.1.113883.6.162",
                                    "code": "04746"
                                }
                            ],
                            "text": "fish oil-omega-3 fatty acids capsule"
                        },
                        "strength": {
                            "numerator": {
                                "value": 1000,
                                "unit": "MG",
                                "system": "http://unitsofmeasure.org",
                                "code": "mg"
                            },
                            "denominator": {
                                "value": 1000,
                                "unit": "MG",
                                "system": "http://unitsofmeasure.org",
                                "code": "mg"
                            }
                        }
                    }
                ]
            },
            "search": {
                "mode": "include"
            }
        },
        {
            "link": [
                {
                    "relation": "self",
                    "url": "https://appmarket.epic.com/interconnect-amcurprd-oauth/api/FHIR/R4/Medication/eCVUWATktdzbe4twTCwnlM0IbnaJ60nbj3zG1PR6mCmFAI.cAPFapkxZZtnCIF9DD3"
                }
            ],
            "fullUrl": "https://appmarket.epic.com/interconnect-amcurprd-oauth/api/FHIR/R4/Medication/eCVUWATktdzbe4twTCwnlM0IbnaJ60nbj3zG1PR6mCmFAI.cAPFapkxZZtnCIF9DD3",
            "resource": {
                "resourceType": "Medication",
                "id": "eCVUWATktdzbe4twTCwnlM0IbnaJ60nbj3zG1PR6mCmFAI.cAPFapkxZZtnCIF9DD3",
                "code": {
                    "coding": [
                        {
                            "system": "urn:oid:2.16.840.1.113883.6.253",
                            "code": "28385"
                        },
                        {
                            "system": "urn:oid:2.16.840.1.113883.6.68",
                            "code": "41550030000320"
                        },
                        {
                            "system": "urn:oid:2.16.840.1.113883.6.162",
                            "code": "08859"
                        },
                        {
                            "system": "http://www.nlm.nih.gov/research/umls/rxnorm",
                            "code": "28889"
                        },
                        {
                            "system": "http://www.nlm.nih.gov/research/umls/rxnorm",
                            "code": "311372"
                        }
                    ],
                    "text": "loratadine (CLARITIN) tablet 10 mg"
                },
                "form": {
                    "coding": [
                        {
                            "system": "urn:oid:1.2.840.114350.1.13.0.1.7.4.698288.310",
                            "code": "TABS",
                            "display": "tablet"
                        }
                    ],
                    "text": "tablet"
                },
                "ingredient": [
                    {
                        "itemCodeableConcept": {
                            "coding": [
                                {
                                    "system": "urn:oid:2.16.840.1.113883.6.253",
                                    "code": "28385"
                                },
                                {
                                    "system": "urn:oid:2.16.840.1.113883.6.68",
                                    "code": "41550030000320"
                                },
                                {
                                    "system": "urn:oid:2.16.840.1.113883.6.162",
                                    "code": "08859"
                                },
                                {
                                    "system": "http://www.nlm.nih.gov/research/umls/rxnorm",
                                    "code": "28889"
                                },
                                {
                                    "system": "http://www.nlm.nih.gov/research/umls/rxnorm",
                                    "code": "311372"
                                }
                            ],
                            "text": "loratadine (CLARITIN) tablet 10 mg"
                        },
                        "strength": {
                            "numerator": {
                                "value": 10,
                                "unit": "MG",
                                "system": "http://unitsofmeasure.org",
                                "code": "mg"
                            },
                            "denominator": {
                                "value": 10,
                                "unit": "MG",
                                "system": "http://unitsofmeasure.org",
                                "code": "mg"
                            }
                        }
                    }
                ]
            },
            "search": {
                "mode": "include"
            }
        },
        {
            "link": [
                {
                    "relation": "self",
                    "url": "https://appmarket.epic.com/interconnect-amcurprd-oauth/api/FHIR/R4/Medication/eQT2sTcpCMDFsgwCwG2AzAn-WoG15QfoV.kykRXz7P-qv2jKvPyTrU7cYZW0m-HIL3"
                }
            ],
            "fullUrl": "https://appmarket.epic.com/interconnect-amcurprd-oauth/api/FHIR/R4/Medication/eQT2sTcpCMDFsgwCwG2AzAn-WoG15QfoV.kykRXz7P-qv2jKvPyTrU7cYZW0m-HIL3",
            "resource": {
                "resourceType": "Medication",
                "id": "eQT2sTcpCMDFsgwCwG2AzAn-WoG15QfoV.kykRXz7P-qv2jKvPyTrU7cYZW0m-HIL3",
                "code": {
                    "coding": [
                        {
                            "system": "urn:oid:2.16.840.1.113883.6.253",
                            "code": "34372"
                        },
                        {
                            "system": "urn:oid:2.16.840.1.113883.6.68",
                            "code": "74200047102010"
                        },
                        {
                            "system": "http://www.nlm.nih.gov/research/umls/rxnorm",
                            "code": "32521"
                        },
                        {
                            "system": "http://www.nlm.nih.gov/research/umls/rxnorm",
                            "code": "68139"
                        },
                        {
                            "system": "http://www.nlm.nih.gov/research/umls/rxnorm",
                            "code": "1234995"
                        },
                        {
                            "system": "urn:oid:2.16.840.1.113883.6.162",
                            "code": "11014"
                        }
                    ],
                    "text": "rocuronium (ZEMURON) 10 mg/mL injection"
                },
                "form": {
                    "coding": [
                        {
                            "system": "urn:oid:1.2.840.114350.1.13.0.1.7.4.698288.310",
                            "code": "SOLN",
                            "display": "solution"
                        }
                    ],
                    "text": "solution"
                },
                "ingredient": [
                    {
                        "itemCodeableConcept": {
                            "coding": [
                                {
                                    "system": "urn:oid:2.16.840.1.113883.6.253",
                                    "code": "34372"
                                },
                                {
                                    "system": "urn:oid:2.16.840.1.113883.6.68",
                                    "code": "74200047102010"
                                },
                                {
                                    "system": "http://www.nlm.nih.gov/research/umls/rxnorm",
                                    "code": "32521"
                                },
                                {
                                    "system": "http://www.nlm.nih.gov/research/umls/rxnorm",
                                    "code": "68139"
                                },
                                {
                                    "system": "http://www.nlm.nih.gov/research/umls/rxnorm",
                                    "code": "1234995"
                                },
                                {
                                    "system": "urn:oid:2.16.840.1.113883.6.162",
                                    "code": "11014"
                                }
                            ],
                            "text": "rocuronium (ZEMURON) 10 mg/mL injection"
                        },
                        "strength": {
                            "numerator": {
                                "value": 10,
                                "unit": "MG/ML",
                                "system": "http://unitsofmeasure.org",
                                "code": "mg/mL"
                            },
                            "denominator": {
                                "value": 10,
                                "unit": "MG/ML",
                                "system": "http://unitsofmeasure.org",
                                "code": "mg/mL"
                            }
                        }
                    }
                ]
            },
            "search": {
                "mode": "include"
            }
        },
        {
            "link": [
                {
                    "relation": "self",
                    "url": "https://appmarket.epic.com/interconnect-amcurprd-oauth/api/FHIR/R4/Medication/eSE.lzw6WwR8RkK6lleDxF7HQ9PdVDRMvWBUS0VnboC1AV2QXfW3kXVBqAkVj6-PZ3"
                }
            ],
            "fullUrl": "https://appmarket.epic.com/interconnect-amcurprd-oauth/api/FHIR/R4/Medication/eSE.lzw6WwR8RkK6lleDxF7HQ9PdVDRMvWBUS0VnboC1AV2QXfW3kXVBqAkVj6-PZ3",
            "resource": {
                "resourceType": "Medication",
                "id": "eSE.lzw6WwR8RkK6lleDxF7HQ9PdVDRMvWBUS0VnboC1AV2QXfW3kXVBqAkVj6-PZ3",
                "code": {
                    "coding": [
                        {
                            "system": "urn:oid:2.16.840.1.113883.6.253",
                            "code": "4043"
                        },
                        {
                            "system": "urn:oid:2.16.840.1.113883.6.68",
                            "code": "02100015102115"
                        },
                        {
                            "system": "urn:oid:2.16.840.1.113883.6.162",
                            "code": "00136"
                        },
                        {
                            "system": "http://www.nlm.nih.gov/research/umls/rxnorm",
                            "code": "2180"
                        },
                        {
                            "system": "http://www.nlm.nih.gov/research/umls/rxnorm",
                            "code": "203171"
                        },
                        {
                            "system": "http://www.nlm.nih.gov/research/umls/rxnorm",
                            "code": "1665050"
                        }
                    ],
                    "text": "ceFAZolin (ANCEF) vial 1 g"
                },
                "form": {
                    "coding": [
                        {
                            "system": "urn:oid:1.2.840.114350.1.13.0.1.7.4.698288.310",
                            "code": "SOLR",
                            "display": "reconstituted solution"
                        }
                    ],
                    "text": "reconstituted solution"
                },
                "ingredient": [
                    {
                        "itemCodeableConcept": {
                            "coding": [
                                {
                                    "system": "urn:oid:2.16.840.1.113883.6.253",
                                    "code": "4043"
                                },
                                {
                                    "system": "urn:oid:2.16.840.1.113883.6.68",
                                    "code": "02100015102115"
                                },
                                {
                                    "system": "urn:oid:2.16.840.1.113883.6.162",
                                    "code": "00136"
                                },
                                {
                                    "system": "http://www.nlm.nih.gov/research/umls/rxnorm",
                                    "code": "2180"
                                },
                                {
                                    "system": "http://www.nlm.nih.gov/research/umls/rxnorm",
                                    "code": "203171"
                                },
                                {
                                    "system": "http://www.nlm.nih.gov/research/umls/rxnorm",
                                    "code": "1665050"
                                }
                            ],
                            "text": "ceFAZolin (ANCEF) vial 1 g"
                        },
                        "strength": {
                            "numerator": {
                                "value": 1,
                                "unit": "GM",
                                "system": "http://unitsofmeasure.org",
                                "code": "g"
                            },
                            "denominator": {
                                "value": 1,
                                "unit": "GM",
                                "system": "http://unitsofmeasure.org",
                                "code": "g"
                            }
                        }
                    }
                ]
            },
            "search": {
                "mode": "include"
            }
        },
        {
            "link": [
                {
                    "relation": "self",
                    "url": "https://appmarket.epic.com/interconnect-amcurprd-oauth/api/FHIR/R4/Medication/eYFoIiqfhMx6.fNf24IZkOdnnt8uB01rS8DL4kzf8Q.mJNgP7WLgG2uC4mMX10Bif3"
                }
            ],
            "fullUrl": "https://appmarket.epic.com/interconnect-amcurprd-oauth/api/FHIR/R4/Medication/eYFoIiqfhMx6.fNf24IZkOdnnt8uB01rS8DL4kzf8Q.mJNgP7WLgG2uC4mMX10Bif3",
            "resource": {
                "resourceType": "Medication",
                "id": "eYFoIiqfhMx6.fNf24IZkOdnnt8uB01rS8DL4kzf8Q.mJNgP7WLgG2uC4mMX10Bif3",
                "code": {
                    "coding": [
                        {
                            "system": "urn:oid:2.16.840.1.113883.6.253",
                            "code": "28752"
                        },
                        {
                            "system": "urn:oid:2.16.840.1.113883.6.68",
                            "code": "60201025102001"
                        },
                        {
                            "system": "urn:oid:2.16.840.1.113883.6.162",
                            "code": "03257"
                        },
                        {
                            "system": "http://www.nlm.nih.gov/research/umls/rxnorm",
                            "code": "6960"
                        },
                        {
                            "system": "http://www.nlm.nih.gov/research/umls/rxnorm",
                            "code": "203128"
                        },
                        {
                            "system": "http://www.nlm.nih.gov/research/umls/rxnorm",
                            "code": "311700"
                        }
                    ],
                    "text": "midazolam (VERSED) injection 1 mg/mL"
                },
                "form": {
                    "coding": [
                        {
                            "system": "urn:oid:1.2.840.114350.1.13.0.1.7.4.698288.310",
                            "code": "SOLN",
                            "display": "solution"
                        }
                    ],
                    "text": "solution"
                },
                "ingredient": [
                    {
                        "itemCodeableConcept": {
                            "coding": [
                                {
                                    "system": "urn:oid:2.16.840.1.113883.6.253",
                                    "code": "28752"
                                },
                                {
                                    "system": "urn:oid:2.16.840.1.113883.6.68",
                                    "code": "60201025102001"
                                },
                                {
                                    "system": "urn:oid:2.16.840.1.113883.6.162",
                                    "code": "03257"
                                },
                                {
                                    "system": "http://www.nlm.nih.gov/research/umls/rxnorm",
                                    "code": "6960"
                                },
                                {
                                    "system": "http://www.nlm.nih.gov/research/umls/rxnorm",
                                    "code": "203128"
                                },
                                {
                                    "system": "http://www.nlm.nih.gov/research/umls/rxnorm",
                                    "code": "311700"
                                }
                            ],
                            "text": "midazolam (VERSED) injection 1 mg/mL"
                        },
                        "strength": {
                            "numerator": {
                                "value": 1,
                                "unit": "MG/ML",
                                "system": "http://unitsofmeasure.org",
                                "code": "mg/mL"
                            },
                            "denominator": {
                                "value": 1,
                                "unit": "MG/ML",
                                "system": "http://unitsofmeasure.org",
                                "code": "mg/mL"
                            }
                        }
                    }
                ]
            },
            "search": {
                "mode": "include"
            }
        },
        {
            "link": [
                {
                    "relation": "self",
                    "url": "https://appmarket.epic.com/interconnect-amcurprd-oauth/api/FHIR/R4/Patient/eYg3-1aJmCMq-umIIq2Njxw3"
                }
            ],
            "fullUrl": "https://appmarket.epic.com/interconnect-amcurprd-oauth/api/FHIR/R4/Patient/eYg3-1aJmCMq-umIIq2Njxw3",
            "resource": {
                "resourceType": "Patient",
                "id": "eYg3-1aJmCMq-umIIq2Njxw3",
                "extension": [
                    {
                        "extension": [
                            {
                                "valueCoding": {
                                    "system": "urn:oid:2.16.840.1.113883.6.238",
                                    "code": "2028-9",
                                    "display": "Asian"
                                },
                                "url": "ombCategory"
                            },
                            {
                                "valueString": "Other Asian",
                                "url": "text"
                            }
                        ],
                        "url": "http://hl7.org/fhir/us/core/StructureDefinition/us-core-race"
                    },
                    {
                        "extension": [
                            {
                                "valueCoding": {
                                    "system": "urn:oid:2.16.840.1.113883.6.238",
                                    "code": "2186-5",
                                    "display": "Not Hispanic or Latino"
                                },
                                "url": "ombCategory"
                            },
                            {
                                "valueString": "Not Hispanic or Latino",
                                "url": "text"
                            }
                        ],
                        "url": "http://hl7.org/fhir/us/core/StructureDefinition/us-core-ethnicity"
                    },
                    {
                        "valueCodeableConcept": {
                            "coding": [
                                {
                                    "system": "urn:oid:1.2.840.114350.1.13.0.1.7.10.698084.130.657370.19999000",
                                    "code": "female",
                                    "display": "female"
                                }
                            ]
                        },
                        "url": "http://open.epic.com/FHIR/StructureDefinition/extension/legal-sex"
                    },
                    {
                        "valueCodeableConcept": {
                            "coding": [
                                {
                                    "system": "urn:oid:1.2.840.114350.1.13.0.1.7.10.698084.130.657370.19999000",
                                    "code": "female",
                                    "display": "female"
                                }
                            ]
                        },
                        "url": "http://open.epic.com/FHIR/StructureDefinition/extension/sex-for-clinical-use"
                    },
                    {
                        "valueCode": "F",
                        "url": "http://hl7.org/fhir/us/core/StructureDefinition/us-core-birthsex"
                    }
                ],
                "identifier": [
                    {
                        "use": "usual",
                        "system": "urn:oid:2.16.840.1.113883.4.1",
                        "value": "566-51-9257"
                    },
                    {
                        "use": "usual",
                        "type": {
                            "text": "CEID"
                        },
                        "system": "urn:epic:apporchard.curprod",
                        "value": "AO16N3T2ZW5WL4C"
                    },
                    {
                        "use": "usual",
                        "type": {
                            "text": "EPIC"
                        },
                        "system": "urn:oid:1.2.840.114350.1.1",
                        "value": "E3396"
                    },
                    {
                        "use": "usual",
                        "type": {
                            "text": "EXTERNAL"
                        },
                        "system": "urn:oid:1.2.840.114350.1.13.0.1.7.2.698084",
                        "value": "Z5111"
                    },
                    {
                        "use": "usual",
                        "type": {
                            "text": "FHIR"
                        },
                        "system": "http://open.epic.com/FHIR/StructureDefinition/patient-dstu2-fhir-id",
                        "value": "TtdBQKkYpAP5sCWcz9f79zjAi.vjsA.aRxcXcNINdw1UB"
                    },
                    {
                        "use": "usual",
                        "type": {
                            "text": "FHIR STU3"
                        },
                        "system": "http://open.epic.com/FHIR/StructureDefinition/patient-fhir-id",
                        "value": "eYg3-1aJmCMq-umIIq2Njxw3"
                    },
                    {
                        "use": "usual",
                        "type": {
                            "text": "INTERNAL"
                        },
                        "system": "urn:oid:1.2.840.114350.1.13.0.1.7.2.698084",
                        "value": "     Z5111"
                    },
                    {
                        "use": "usual",
                        "type": {
                            "text": "MRN"
                        },
                        "system": "urn:oid:1.2.840.114350.1.13.0.1.7.5.737384.14",
                        "value": "203150"
                    },
                    {
                        "use": "usual",
                        "type": {
                            "text": "MYCHARTLOGIN"
                        },
                        "system": "urn:oid:1.2.840.114350.1.13.0.1.7.3.878082.110",
                        "value": "ANESTHESIAABBY"
                    },
                    {
                        "use": "usual",
                        "type": {
                            "text": "WPRINTERNAL"
                        },
                        "system": "urn:oid:1.2.840.114350.1.13.0.1.7.2.878082",
                        "value": "52"
                    },
                    {
                        "use": "usual",
                        "system": "https://open.epic.com/FHIR/StructureDefinition/PayerMemberId",
                        "value": "720093350"
                    }
                ],
                "active": true,
                "name": [
                    {
                        "use": "official",
                        "text": "Abby Anesthesia",
                        "family": "Anesthesia",
                        "given": [
                            "Abby"
                        ]
                    },
                    {
                        "use": "usual",
                        "text": "Abby Anesthesia",
                        "family": "Anesthesia",
                        "given": [
                            "Abby"
                        ]
                    }
                ],
                "telecom": [
                    {
                        "system": "phone",
                        "value": "112-505-1121",
                        "use": "home"
                    }
                ],
                "gender": "female",
                "birthDate": "1965-12-24",
                "deceasedBoolean": false,
                "address": [
                    {
                        "use": "old",
                        "line": [
                            "112 Anesthesia Drive"
                        ],
                        "city": "LAKE BLUFF",
                        "district": "LAKE",
                        "state": "IL",
                        "postalCode": "60044",
                        "country": "US"
                    },
                    {
                        "use": "home",
                        "line": [
                            "112 Anesthesia Drive"
                        ],
                        "city": "LAKE BLUFF",
                        "district": "LAKE",
                        "state": "IL",
                        "postalCode": "60044",
                        "country": "US"
                    }
                ],
                "maritalStatus": {
                    "text": "Married"
                },
                "contact": [
                    {
                        "relationship": [
                            {
                                "coding": [
                                    {
                                        "system": "http://terminology.hl7.org/CodeSystem/v2-0131",
                                        "code": "C",
                                        "display": "Emergency Contact"
                                    },
                                    {
                                        "system": "urn:oid:1.2.840.114350.1.13.0.1.7.4.827665.1000",
                                        "code": "17",
                                        "display": "Spouse"
                                    }
                                ],
                                "text": "Spouse"
                            }
                        ],
                        "name": {
                            "use": "usual",
                            "text": "Tom"
                        },
                        "telecom": [
                            {
                                "system": "phone",
                                "value": "112-505-1121",
                                "use": "home"
                            }
                        ],
                        "address": {
                            "use": "home",
                            "line": [
                                "112 Anesthesia Drive"
                            ],
                            "city": "LAKE BLUFF",
                            "district": "LAKE",
                            "state": "IL",
                            "postalCode": "60044",
                            "country": "US"
                        }
                    },
                    {
                        "relationship": [
                            {
                                "coding": [
                                    {
                                        "system": "http://terminology.hl7.org/CodeSystem/v2-0131",
                                        "code": "E",
                                        "display": "Employer"
                                    }
                                ]
                            }
                        ],
                        "telecom": [
                            {
                                "system": "phone",
                                "value": "608-271-9000",
                                "use": "work"
                            }
                        ],
                        "address": {
                            "use": "work",
                            "line": [
                                "1979 MILKY WAY"
                            ],
                            "city": "VERONA",
                            "district": "DANE",
                            "state": "WI",
                            "postalCode": "53593",
                            "country": "US"
                        },
                        "organization": {
                            "display": "Ehs Generic Employer"
                        }
                    }
                ],
                "generalPractitioner": [
                    {
                        "reference": "Practitioner/e7D.u41Zv3VPrLmUp-mWnrQ3",
                        "type": "Practitioner",
                        "display": "Physician Champion, MD"
                    }
                ],
                "managingOrganization": {
                    "reference": "Organization/enRyWnSP963FYDpoks4NHOA3",
                    "display": "Epic Hospital System"
                }
            },
            "search": {
                "mode": "include"
            }
        },
        {
            "link": [
                {
                    "relation": "self",
                    "url": "https://appmarket.epic.com/interconnect-amcurprd-oauth/api/FHIR/R4/Medication/eb6eaobmzD1ziDGudUrJM9i6z8Kyyw-YAxIBdWNGSbLcFGDGU31sJcBArJoxARdU.3"
                }
            ],
            "fullUrl": "https://appmarket.epic.com/interconnect-amcurprd-oauth/api/FHIR/R4/Medication/eb6eaobmzD1ziDGudUrJM9i6z8Kyyw-YAxIBdWNGSbLcFGDGU31sJcBArJoxARdU.3",
            "resource": {
                "resourceType": "Medication",
                "id": "eb6eaobmzD1ziDGudUrJM9i6z8Kyyw-YAxIBdWNGSbLcFGDGU31sJcBArJoxARdU.3",
                "code": {
                    "coding": [
                        {
                            "system": "urn:oid:2.16.840.1.113883.6.253",
                            "code": "12076"
                        },
                        {
                            "system": "urn:oid:2.16.840.1.113883.6.68",
                            "code": "90850060102015"
                        },
                        {
                            "system": "urn:oid:2.16.840.1.113883.6.162",
                            "code": "05827"
                        },
                        {
                            "system": "http://www.nlm.nih.gov/research/umls/rxnorm",
                            "code": "6387"
                        },
                        {
                            "system": "http://www.nlm.nih.gov/research/umls/rxnorm",
                            "code": "142440"
                        },
                        {
                            "system": "http://www.nlm.nih.gov/research/umls/rxnorm",
                            "code": "1987647"
                        }
                    ],
                    "text": "lidocaine (XYLOCAINE) external solution 4%"
                },
                "form": {
                    "coding": [
                        {
                            "system": "urn:oid:1.2.840.114350.1.13.0.1.7.4.698288.310",
                            "code": "SOLN",
                            "display": "solution"
                        }
                    ],
                    "text": "solution"
                },
                "ingredient": [
                    {
                        "itemCodeableConcept": {
                            "coding": [
                                {
                                    "system": "urn:oid:2.16.840.1.113883.6.253",
                                    "code": "12076"
                                },
                                {
                                    "system": "urn:oid:2.16.840.1.113883.6.68",
                                    "code": "90850060102015"
                                },
                                {
                                    "system": "urn:oid:2.16.840.1.113883.6.162",
                                    "code": "05827"
                                },
                                {
                                    "system": "http://www.nlm.nih.gov/research/umls/rxnorm",
                                    "code": "6387"
                                },
                                {
                                    "system": "http://www.nlm.nih.gov/research/umls/rxnorm",
                                    "code": "142440"
                                },
                                {
                                    "system": "http://www.nlm.nih.gov/research/umls/rxnorm",
                                    "code": "1987647"
                                }
                            ],
                            "text": "lidocaine (XYLOCAINE) external solution 4%"
                        },
                        "strength": {
                            "numerator": {
                                "value": 4,
                                "unit": "%",
                                "system": "http://unitsofmeasure.org",
                                "code": "%"
                            },
                            "denominator": {
                                "value": 4,
                                "unit": "%",
                                "system": "http://unitsofmeasure.org",
                                "code": "%"
                            }
                        }
                    }
                ]
            },
            "search": {
                "mode": "include"
            }
        },
        {
            "link": [
                {
                    "relation": "self",
                    "url": "https://appmarket.epic.com/interconnect-amcurprd-oauth/api/FHIR/R4/Medication/eetjoXy-TbdryRS.SobVHBmkU5eT7-usbmjfZNzCfo.ljpjlURCcgc9aoFHImhcaB3"
                }
            ],
            "fullUrl": "https://appmarket.epic.com/interconnect-amcurprd-oauth/api/FHIR/R4/Medication/eetjoXy-TbdryRS.SobVHBmkU5eT7-usbmjfZNzCfo.ljpjlURCcgc9aoFHImhcaB3",
            "resource": {
                "resourceType": "Medication",
                "id": "eetjoXy-TbdryRS.SobVHBmkU5eT7-usbmjfZNzCfo.ljpjlURCcgc9aoFHImhcaB3",
                "code": {
                    "coding": [
                        {
                            "system": "urn:oid:2.16.840.1.113883.6.253",
                            "code": "10519"
                        },
                        {
                            "system": "urn:oid:2.16.840.1.113883.6.68",
                            "code": "66100020000330"
                        },
                        {
                            "system": "urn:oid:2.16.840.1.113883.6.162",
                            "code": "03715"
                        },
                        {
                            "system": "http://www.nlm.nih.gov/research/umls/rxnorm",
                            "code": "5640"
                        },
                        {
                            "system": "http://www.nlm.nih.gov/research/umls/rxnorm",
                            "code": "197806"
                        }
                    ],
                    "text": "ibuprofen (MOTRIN) tablet"
                },
                "form": {
                    "coding": [
                        {
                            "system": "urn:oid:1.2.840.114350.1.13.0.1.7.4.698288.310",
                            "code": "TABS",
                            "display": "tablet"
                        }
                    ],
                    "text": "tablet"
                },
                "ingredient": [
                    {
                        "itemCodeableConcept": {
                            "coding": [
                                {
                                    "system": "urn:oid:2.16.840.1.113883.6.253",
                                    "code": "10519"
                                },
                                {
                                    "system": "urn:oid:2.16.840.1.113883.6.68",
                                    "code": "66100020000330"
                                },
                                {
                                    "system": "urn:oid:2.16.840.1.113883.6.162",
                                    "code": "03715"
                                },
                                {
                                    "system": "http://www.nlm.nih.gov/research/umls/rxnorm",
                                    "code": "5640"
                                },
                                {
                                    "system": "http://www.nlm.nih.gov/research/umls/rxnorm",
                                    "code": "197806"
                                }
                            ],
                            "text": "ibuprofen (MOTRIN) tablet"
                        },
                        "strength": {
                            "numerator": {
                                "value": 600,
                                "unit": "MG",
                                "system": "http://unitsofmeasure.org",
                                "code": "mg"
                            },
                            "denominator": {
                                "value": 600,
                                "unit": "MG",
                                "system": "http://unitsofmeasure.org",
                                "code": "mg"
                            }
                        }
                    }
                ]
            },
            "search": {
                "mode": "include"
            }
        },
        {
            "link": [
                {
                    "relation": "self",
                    "url": "https://appmarket.epic.com/interconnect-amcurprd-oauth/api/FHIR/R4/Medication/ehE6DK7mjLRc1FUvWb3oOp6SobNq3RyvP8ACTBScU2iG2V8Bm1F0-eJ1SeI7VLgs03"
                }
            ],
            "fullUrl": "https://appmarket.epic.com/interconnect-amcurprd-oauth/api/FHIR/R4/Medication/ehE6DK7mjLRc1FUvWb3oOp6SobNq3RyvP8ACTBScU2iG2V8Bm1F0-eJ1SeI7VLgs03",
            "resource": {
                "resourceType": "Medication",
                "id": "ehE6DK7mjLRc1FUvWb3oOp6SobNq3RyvP8ACTBScU2iG2V8Bm1F0-eJ1SeI7VLgs03",
                "code": {
                    "coding": [
                        {
                            "system": "urn:oid:2.16.840.1.113883.6.253",
                            "code": "12078"
                        },
                        {
                            "system": "urn:oid:2.16.840.1.113883.6.68",
                            "code": "69100040102010"
                        },
                        {
                            "system": "urn:oid:2.16.840.1.113883.6.162",
                            "code": "03783"
                        },
                        {
                            "system": "http://www.nlm.nih.gov/research/umls/rxnorm",
                            "code": "6387"
                        },
                        {
                            "system": "http://www.nlm.nih.gov/research/umls/rxnorm",
                            "code": "142440"
                        },
                        {
                            "system": "http://www.nlm.nih.gov/research/umls/rxnorm",
                            "code": "1010033"
                        },
                        {
                            "system": "http://www.nlm.nih.gov/research/umls/rxnorm",
                            "code": "1737566"
                        },
                        {
                            "system": "http://www.nlm.nih.gov/research/umls/rxnorm",
                            "code": "1737570"
                        }
                    ],
                    "text": "lidocaine (XYLOCAINE) injection 1%"
                },
                "form": {
                    "coding": [
                        {
                            "system": "urn:oid:1.2.840.114350.1.13.0.1.7.4.698288.310",
                            "code": "SOLN",
                            "display": "solution"
                        }
                    ],
                    "text": "solution"
                },
                "ingredient": [
                    {
                        "itemCodeableConcept": {
                            "coding": [
                                {
                                    "system": "urn:oid:2.16.840.1.113883.6.253",
                                    "code": "12078"
                                },
                                {
                                    "system": "urn:oid:2.16.840.1.113883.6.68",
                                    "code": "69100040102010"
                                },
                                {
                                    "system": "urn:oid:2.16.840.1.113883.6.162",
                                    "code": "03783"
                                },
                                {
                                    "system": "http://www.nlm.nih.gov/research/umls/rxnorm",
                                    "code": "6387"
                                },
                                {
                                    "system": "http://www.nlm.nih.gov/research/umls/rxnorm",
                                    "code": "142440"
                                },
                                {
                                    "system": "http://www.nlm.nih.gov/research/umls/rxnorm",
                                    "code": "1010033"
                                },
                                {
                                    "system": "http://www.nlm.nih.gov/research/umls/rxnorm",
                                    "code": "1737566"
                                },
                                {
                                    "system": "http://www.nlm.nih.gov/research/umls/rxnorm",
                                    "code": "1737570"
                                }
                            ],
                            "text": "lidocaine (XYLOCAINE) injection 1%"
                        },
                        "strength": {
                            "numerator": {
                                "value": 1,
                                "unit": "%",
                                "system": "http://unitsofmeasure.org",
                                "code": "%"
                            },
                            "denominator": {
                                "value": 1,
                                "unit": "%",
                                "system": "http://unitsofmeasure.org",
                                "code": "%"
                            }
                        }
                    }
                ]
            },
            "search": {
                "mode": "include"
            }
        },
        {
            "link": [
                {
                    "relation": "self",
                    "url": "https://appmarket.epic.com/interconnect-amcurprd-oauth/api/FHIR/R4/Medication/ehXn2pxe72xALLwUJG4ILc5.S3SP6rBUOtGI0OCBgFH3Zcyrw01tBIOb5sidysRAf3"
                }
            ],
            "fullUrl": "https://appmarket.epic.com/interconnect-amcurprd-oauth/api/FHIR/R4/Medication/ehXn2pxe72xALLwUJG4ILc5.S3SP6rBUOtGI0OCBgFH3Zcyrw01tBIOb5sidysRAf3",
            "resource": {
                "resourceType": "Medication",
                "id": "ehXn2pxe72xALLwUJG4ILc5.S3SP6rBUOtGI0OCBgFH3Zcyrw01tBIOb5sidysRAf3",
                "code": {
                    "coding": [
                        {
                            "system": "urn:oid:2.16.840.1.113883.6.253",
                            "code": "41555"
                        },
                        {
                            "system": "urn:oid:2.16.840.1.113883.6.68",
                            "code": "30042010100340"
                        },
                        {
                            "system": "urn:oid:2.16.840.1.113883.6.162",
                            "code": "14853"
                        },
                        {
                            "system": "http://www.nlm.nih.gov/research/umls/rxnorm",
                            "code": "46041"
                        },
                        {
                            "system": "http://www.nlm.nih.gov/research/umls/rxnorm",
                            "code": "114265"
                        },
                        {
                            "system": "http://www.nlm.nih.gov/research/umls/rxnorm",
                            "code": "904405"
                        }
                    ],
                    "text": "FOSAMAX 40 MG PO TABS"
                },
                "form": {
                    "coding": [
                        {
                            "system": "urn:oid:1.2.840.114350.1.13.0.1.7.4.698288.310",
                            "code": "TABS",
                            "display": "tablet"
                        }
                    ],
                    "text": "tablet"
                },
                "ingredient": [
                    {
                        "itemCodeableConcept": {
                            "coding": [
                                {
                                    "system": "urn:oid:2.16.840.1.113883.6.253",
                                    "code": "41555"
                                },
                                {
                                    "system": "urn:oid:2.16.840.1.113883.6.68",
                                    "code": "30042010100340"
                                },
                                {
                                    "system": "urn:oid:2.16.840.1.113883.6.162",
                                    "code": "14853"
                                },
                                {
                                    "system": "http://www.nlm.nih.gov/research/umls/rxnorm",
                                    "code": "46041"
                                },
                                {
                                    "system": "http://www.nlm.nih.gov/research/umls/rxnorm",
                                    "code": "114265"
                                },
                                {
                                    "system": "http://www.nlm.nih.gov/research/umls/rxnorm",
                                    "code": "904405"
                                }
                            ],
                            "text": "FOSAMAX 40 MG PO TABS"
                        },
                        "strength": {
                            "numerator": {
                                "value": 40,
                                "unit": "MG",
                                "system": "http://unitsofmeasure.org",
                                "code": "mg"
                            },
                            "denominator": {
                                "value": 40,
                                "unit": "MG",
                                "system": "http://unitsofmeasure.org",
                                "code": "mg"
                            }
                        }
                    }
                ]
            },
            "search": {
                "mode": "include"
            }
        },
        {
            "link": [
                {
                    "relation": "self",
                    "url": "https://appmarket.epic.com/interconnect-amcurprd-oauth/api/FHIR/R4/Medication/eqqOnYRQjKbdm4rltcYFMpZKBSuIj7eAyD81zgYpPQji8mmmqbJBTvZwYaarExgGa3"
                }
            ],
            "fullUrl": "https://appmarket.epic.com/interconnect-amcurprd-oauth/api/FHIR/R4/Medication/eqqOnYRQjKbdm4rltcYFMpZKBSuIj7eAyD81zgYpPQji8mmmqbJBTvZwYaarExgGa3",
            "resource": {
                "resourceType": "Medication",
                "id": "eqqOnYRQjKbdm4rltcYFMpZKBSuIj7eAyD81zgYpPQji8mmmqbJBTvZwYaarExgGa3",
                "code": {
                    "coding": [
                        {
                            "system": "urn:oid:2.16.840.1.113883.6.253",
                            "code": "60331"
                        },
                        {
                            "system": "urn:oid:2.16.840.1.113883.6.68",
                            "code": "02100015112010"
                        },
                        {
                            "system": "http://www.nlm.nih.gov/research/umls/rxnorm",
                            "code": "2180"
                        },
                        {
                            "system": "http://www.nlm.nih.gov/research/umls/rxnorm",
                            "code": "203171"
                        },
                        {
                            "system": "http://www.nlm.nih.gov/research/umls/rxnorm",
                            "code": "1665050"
                        }
                    ],
                    "text": "ceFAZolin (ANCEF) IVPB 1 g in 50 mL (premix)"
                },
                "form": {
                    "coding": [
                        {
                            "system": "urn:oid:1.2.840.114350.1.13.0.1.7.4.698288.310",
                            "code": "SOLN",
                            "display": "solution"
                        }
                    ],
                    "text": "solution"
                },
                "ingredient": [
                    {
                        "itemCodeableConcept": {
                            "coding": [
                                {
                                    "system": "urn:oid:2.16.840.1.113883.6.253",
                                    "code": "60331"
                                },
                                {
                                    "system": "urn:oid:2.16.840.1.113883.6.68",
                                    "code": "02100015112010"
                                },
                                {
                                    "system": "http://www.nlm.nih.gov/research/umls/rxnorm",
                                    "code": "2180"
                                },
                                {
                                    "system": "http://www.nlm.nih.gov/research/umls/rxnorm",
                                    "code": "203171"
                                },
                                {
                                    "system": "http://www.nlm.nih.gov/research/umls/rxnorm",
                                    "code": "1665050"
                                }
                            ],
                            "text": "ceFAZolin (ANCEF) IVPB 1 g in 50 mL (premix)"
                        }
                    }
                ]
            },
            "search": {
                "mode": "include"
            }
        },
        {
            "link": [
                {
                    "relation": "self",
                    "url": "https://appmarket.epic.com/interconnect-amcurprd-oauth/api/FHIR/R4/Medication/ersqXjOusVJslybwnACORsNXUsgFO2F-.etHS32yBxlC41gtV5czGdMBbo18p37u23"
                }
            ],
            "fullUrl": "https://appmarket.epic.com/interconnect-amcurprd-oauth/api/FHIR/R4/Medication/ersqXjOusVJslybwnACORsNXUsgFO2F-.etHS32yBxlC41gtV5czGdMBbo18p37u23",
            "resource": {
                "resourceType": "Medication",
                "id": "ersqXjOusVJslybwnACORsNXUsgFO2F-.etHS32yBxlC41gtV5czGdMBbo18p37u23",
                "code": {
                    "coding": [
                        {
                            "system": "urn:oid:2.16.840.1.113883.6.253",
                            "code": "3498"
                        },
                        {
                            "system": "urn:oid:2.16.840.1.113883.6.68",
                            "code": "69100010102005"
                        },
                        {
                            "system": "urn:oid:2.16.840.1.113883.6.162",
                            "code": "03777"
                        },
                        {
                            "system": "http://www.nlm.nih.gov/research/umls/rxnorm",
                            "code": "1815"
                        },
                        {
                            "system": "http://www.nlm.nih.gov/research/umls/rxnorm",
                            "code": "267396"
                        },
                        {
                            "system": "http://www.nlm.nih.gov/research/umls/rxnorm",
                            "code": "1012396"
                        }
                    ],
                    "text": "bupivacaine (MARCAINE) injection 0.25%"
                },
                "form": {
                    "coding": [
                        {
                            "system": "urn:oid:1.2.840.114350.1.13.0.1.7.4.698288.310",
                            "code": "SOLN",
                            "display": "solution"
                        }
                    ],
                    "text": "solution"
                },
                "ingredient": [
                    {
                        "itemCodeableConcept": {
                            "coding": [
                                {
                                    "system": "urn:oid:2.16.840.1.113883.6.253",
                                    "code": "3498"
                                },
                                {
                                    "system": "urn:oid:2.16.840.1.113883.6.68",
                                    "code": "69100010102005"
                                },
                                {
                                    "system": "urn:oid:2.16.840.1.113883.6.162",
                                    "code": "03777"
                                },
                                {
                                    "system": "http://www.nlm.nih.gov/research/umls/rxnorm",
                                    "code": "1815"
                                },
                                {
                                    "system": "http://www.nlm.nih.gov/research/umls/rxnorm",
                                    "code": "267396"
                                },
                                {
                                    "system": "http://www.nlm.nih.gov/research/umls/rxnorm",
                                    "code": "1012396"
                                }
                            ],
                            "text": "bupivacaine (MARCAINE) injection 0.25%"
                        },
                        "strength": {
                            "numerator": {
                                "value": 0.25,
                                "unit": "%",
                                "system": "http://unitsofmeasure.org",
                                "code": "%"
                            },
                            "denominator": {
                                "value": 0.25,
                                "unit": "%",
                                "system": "http://unitsofmeasure.org",
                                "code": "%"
                            }
                        }
                    }
                ]
            },
            "search": {
                "mode": "include"
            }
        }
    ]
}