{
    "resourceType": "Bundle",
    "type": "searchset",
    "total": 3,
    "link": [
        {
            "relation": "self",
            "url": "https://appmarket.epic.com/interconnect-amcurprd-oauth/api/FHIR/R4/MedicationRequest?_include=MedicationRequest:medicationReference&_include=MedicationRequest:subject&_format=json&patient=eiyTTBLEMcm6ZLYF5TkiTdA3"
        }
    ],
    "entry": [
        {
            "link": [
                {
                    "relation": "self",
                    "url": "https://appmarket.epic.com/interconnect-amcurprd-oauth/api/FHIR/R4/MedicationRequest/eHIfXWWr0Z9TvdJKfD.v8bg3"
                }
            ],
            "fullUrl": "https://appmarket.epic.com/interconnect-amcurprd-oauth/api/FHIR/R4/MedicationRequest/eHIfXWWr0Z9TvdJKfD.v8bg3",
            "resource": {
                "resourceType": "MedicationRequest",
                "id": "eHIfXWWr0Z9TvdJKfD.v8bg3",
                "identifier": [
                    {
                        "use": "usual",
                        "system": "urn:oid:1.2.840.114350.1.13.0.1.7.2.798268",
                        "value": "972197"
                    }
                ],
                "status": "active",
                "intent": "order",
                "category": [
                    {
                        "coding": [
                            {
                                "system": "http://terminology.hl7.org/CodeSystem/medicationrequest-category",
                                "code": "community",
                                "display": "Community"
                            }
                        ],
                        "text": "Community"
                    }
                ],
                "medicationReference": {
                    "reference": "Medication/eha1ij0WUQW1VJKO8VQR9F7K6buVTaajp9Its66IFFkxuJCfIKaGBbt3fb2Gfcwdk3",
                    "display": "mycophenolate (CELLCEPT) tablet 500 mg"
                },
                "subject": {
                    "reference": "Patient/eiyTTBLEMcm6ZLYF5TkiTdA3",
                    "display": "Kidney, Kathryn A"
                },
                "encounter": {
                    "reference": "Encounter/eYgbRGxCOR-wBxhz2-vI8ww3",
                    "identifier": {
                        "use": "usual",
                        "system": "urn:oid:1.2.840.114350.1.13.0.1.7.3.698084.8",
                        "value": "35055"
                    },
                    "display": "Office Visit"
                },
                "authoredOn": "2021-07-14",
                "requester": {
                    "reference": "Practitioner/eHegI6kXXRDd6IU28WSw0JA3",
                    "type": "Practitioner",
                    "display": "Physician Transplant, MD"
                },
                "recorder": {
                    "reference": "Practitioner/e6ShSa7TZojt5U-MlDw737w3",
                    "type": "Practitioner",
                    "display": "Jenn Scott, MD"
                },
                "courseOfTherapyType": {
                    "coding": [
                        {
                            "system": "http://terminology.hl7.org/CodeSystem/medicationrequest-course-of-therapy",
                            "code": "acute",
                            "display": "Short course (acute) therapy"
                        }
                    ],
                    "text": "Short course (acute) therapy"
                },
                "dosageInstruction": [
                    {
                        "text": "Take 3 tablets (1,500 mg total) by mouth 2 (two) times a day., Starting Wed 7/14/2021, Until Mon 5/8/2028, Normal",
                        "patientInstruction": "Take 3 tablets (1,500 mg total) by mouth 2 (two) times a day.",
                        "timing": {
                            "repeat": {
                                "boundsPeriod": {
                                    "start": "2021-07-14"
                                },
                                "count": 4980,
                                "timeOfDay": [
                                    "09:00:00",
                                    "18:00:00"
                                ]
                            },
                            "code": {
                                "text": "0900, 1800"
                            }
                        },
                        "asNeededBoolean": false,
                        "route": {
                            "coding": [
                                {
                                    "system": "http://snomed.info/sct",
                                    "code": "260548002",
                                    "display": "Oral (qualifier value)"
                                },
                                {
                                    "system": "urn:oid:1.2.840.114350.1.13.0.1.7.4.798268.7025",
                                    "code": "15",
                                    "display": "Oral"
                                }
                            ],
                            "text": "Oral"
                        },
                        "method": {
                            "coding": [
                                {
                                    "system": "http://snomed.info/sct",
                                    "code": "419652001",
                                    "display": "Take"
                                }
                            ],
                            "text": "Take"
                        },
                        "doseAndRate": [
                            {
                                "type": {
                                    "coding": [
                                        {
                                            "system": "http://epic.com/CodeSystem/dose-rate-type",
                                            "code": "calculated",
                                            "display": "calculated"
                                        }
                                    ],
                                    "text": "calculated"
                                },
                                "doseQuantity": {
                                    "value": 1500,
                                    "unit": "mg",
                                    "system": "http://unitsofmeasure.org",
                                    "code": "mg"
                                }
                            },
                            {
                                "type": {
                                    "coding": [
                                        {
                                            "system": "http://epic.com/CodeSystem/dose-rate-type",
                                            "code": "admin-amount",
                                            "display": "admin-amount"
                                        }
                                    ],
                                    "text": "admin-amount"
                                },
                                "doseQuantity": {
                                    "value": 3,
                                    "unit": "tablet",
                                    "system": "http://unitsofmeasure.org",
                                    "code": "{tbl}"
                                }
                            },
                            {
                                "type": {
                                    "coding": [
                                        {
                                            "system": "http://epic.com/CodeSystem/dose-rate-type",
                                            "code": "ordered",
                                            "display": "ordered"
                                        }
                                    ],
                                    "text": "ordered"
                                },
                                "doseQuantity": {
                                    "value": 1500,
                                    "unit": "mg",
                                    "system": "http://unitsofmeasure.org",
                                    "code": "mg"
                                }
                            }
                        ]
                    }
                ],
                "dispenseRequest": {
                    "validityPeriod": {
                        "start": "2021-07-14"
                    },
                    "numberOfRepeatsAllowed": 82,
                    "quantity": {
                        "value": 180,
                        "unit": "tablet"
                    },
                    "expectedSupplyDuration": {
                        "value": 30,
                        "unit": "Day",
                        "system": "http://unitsofmeasure.org",
                        "code": "d"
                    }
                }
            },
            "search": {
                "mode": "match"
            }
        },
        {
            "link": [
                {
                    "relation": "self",
                    "url": "https://appmarket.epic.com/interconnect-amcurprd-oauth/api/FHIR/R4/MedicationRequest/eNXqxKk-rXj0IQscXl3ws9w3"
                }
            ],
            "fullUrl": "https://appmarket.epic.com/interconnect-amcurprd-oauth/api/FHIR/R4/MedicationRequest/eNXqxKk-rXj0IQscXl3ws9w3",
            "resource": {
                "resourceType": "MedicationRequest",
                "id": "eNXqxKk-rXj0IQscXl3ws9w3",
                "identifier": [
                    {
                        "use": "usual",
                        "system": "urn:oid:1.2.840.114350.1.13.0.1.7.2.798268",
                        "value": "972196"
                    }
                ],
                "status": "active",
                "intent": "order",
                "category": [
                    {
                        "coding": [
                            {
                                "system": "http://terminology.hl7.org/CodeSystem/medicationrequest-category",
                                "code": "community",
                                "display": "Community"
                            }
                        ],
                        "text": "Community"
                    }
                ],
                "medicationReference": {
                    "reference": "Medication/eSphL1QQ6gwd4nF2tHBc9R4Pf3S09WdbiRXJUPg2pAnhSa.RzCh1mSa0kr22TWZZU3",
                    "display": "PREDNISONE 10 MG (21) PO TBPK"
                },
                "subject": {
                    "reference": "Patient/eiyTTBLEMcm6ZLYF5TkiTdA3",
                    "display": "Kidney, Kathryn A"
                },
                "encounter": {
                    "reference": "Encounter/eYgbRGxCOR-wBxhz2-vI8ww3",
                    "identifier": {
                        "use": "usual",
                        "system": "urn:oid:1.2.840.114350.1.13.0.1.7.3.698084.8",
                        "value": "35055"
                    },
                    "display": "Office Visit"
                },
                "authoredOn": "2021-07-14",
                "requester": {
                    "reference": "Practitioner/eHegI6kXXRDd6IU28WSw0JA3",
                    "type": "Practitioner",
                    "display": "Physician Transplant, MD"
                },
                "recorder": {
                    "reference": "Practitioner/e6ShSa7TZojt5U-MlDw737w3",
                    "type": "Practitioner",
                    "display": "Jenn Scott, MD"
                },
                "courseOfTherapyType": {
                    "coding": [
                        {
                            "system": "http://terminology.hl7.org/CodeSystem/medicationrequest-course-of-therapy",
                            "code": "continuous",
                            "display": "Continuous long term therapy"
                        }
                    ],
                    "text": "Continuous long term therapy"
                },
                "dosageInstruction": [
                    {
                        "text": "Take 2 tablets (10 mg total) by mouth twice a day., Starting Wed 7/14/2021, Until Mon 5/8/2028, Normal",
                        "patientInstruction": "Take 2 tablets (10 mg total) by mouth twice a day.",
                        "timing": {
                            "repeat": {
                                "boundsPeriod": {
                                    "start": "2021-07-14"
                                },
                                "count": 4980,
                                "frequency": 2,
                                "period": 1,
                                "periodUnit": "d"
                            },
                            "code": {
                                "text": "twice a day"
                            }
                        },
                        "asNeededBoolean": false,
                        "route": {
                            "coding": [
                                {
                                    "system": "http://snomed.info/sct",
                                    "code": "260548002",
                                    "display": "Oral (qualifier value)"
                                },
                                {
                                    "system": "urn:oid:1.2.840.114350.1.13.0.1.7.4.798268.7025",
                                    "code": "15",
                                    "display": "Oral"
                                }
                            ],
                            "text": "Oral"
                        },
                        "method": {
                            "coding": [
                                {
                                    "system": "http://snomed.info/sct",
                                    "code": "419652001",
                                    "display": "Take"
                                }
                            ],
                            "text": "Take"
                        },
                        "doseAndRate": [
                            {
                                "type": {
                                    "coding": [
                                        {
                                            "system": "http://epic.com/CodeSystem/dose-rate-type",
                                            "code": "calculated",
                                            "display": "calculated"
                                        }
                                    ],
                                    "text": "calculated"
                                },
                                "doseQuantity": {
                                    "value": 10,
                                    "unit": "mg",
                                    "system": "http://unitsofmeasure.org",
                                    "code": "mg"
                                }
                            },
                            {
                                "type": {
                                    "coding": [
                                        {
                                            "system": "http://epic.com/CodeSystem/dose-rate-type",
                                            "code": "admin-amount",
                                            "display": "admin-amount"
                                        }
                                    ],
                                    "text": "admin-amount"
                                },
                                "doseQuantity": {
                                    "value": 2,
                                    "unit": "tablet",
                                    "system": "http://unitsofmeasure.org",
                                    "code": "{tbl}"
                                }
                            },
                            {
                                "type": {
                                    "coding": [
                                        {
                                            "system": "http://epic.com/CodeSystem/dose-rate-type",
                                            "code": "ordered",
                                            "display": "ordered"
                                        }
                                    ],
                                    "text": "ordered"
                                },
                                "doseQuantity": {
                                    "value": 10,
                                    "unit": "mg",
                                    "system": "http://unitsofmeasure.org",
                                    "code": "mg"
                                }
                            }
                        ]
                    }
                ],
                "dispenseRequest": {
                    "validityPeriod": {
                        "start": "2021-07-14"
                    },
                    "numberOfRepeatsAllowed": 82,
                    "quantity": {
                        "value": 120,
                        "unit": "tablet"
                    },
                    "expectedSupplyDuration": {
                        "value": 30,
                        "unit": "Day",
                        "system": "http://unitsofmeasure.org",
                        "code": "d"
                    }
                }
            },
            "search": {
                "mode": "match"
            }
        },
        {
            "link": [
                {
                    "relation": "self",
                    "url": "https://appmarket.epic.com/interconnect-amcurprd-oauth/api/FHIR/R4/MedicationRequest/ep9aIV6x-4ed.7l4TIzlk2w3"
                }
            ],
            "fullUrl": "https://appmarket.epic.com/interconnect-amcurprd-oauth/api/FHIR/R4/MedicationRequest/ep9aIV6x-4ed.7l4TIzlk2w3",
            "resource": {
                "resourceType": "MedicationRequest",
                "id": "ep9aIV6x-4ed.7l4TIzlk2w3",
                "identifier": [
                    {
                        "use": "usual",
                        "system": "urn:oid:1.2.840.114350.1.13.0.1.7.2.798268",
                        "value": "972195"
                    }
                ],
                "status": "active",
                "intent": "order",
                "category": [
                    {
                        "coding": [
                            {
                                "system": "http://terminology.hl7.org/CodeSystem/medicationrequest-category",
                                "code": "community",
                                "display": "Community"
                            }
                        ],
                        "text": "Community"
                    }
                ],
                "medicationReference": {
                    "reference": "Medication/ei-EtI8ujcN4qEGZNtmiYLqwNbWP08DupmjG2EvWs0zV6usv0KX8ihLl9Mze4X-0g3",
                    "display": "tacrolimus (PROGRAF) capsule"
                },
                "subject": {
                    "reference": "Patient/eiyTTBLEMcm6ZLYF5TkiTdA3",
                    "display": "Kidney, Kathryn A"
                },
                "encounter": {
                    "reference": "Encounter/eYgbRGxCOR-wBxhz2-vI8ww3",
                    "identifier": {
                        "use": "usual",
                        "system": "urn:oid:1.2.840.114350.1.13.0.1.7.3.698084.8",
                        "value": "35055"
                    },
                    "display": "Office Visit"
                },
                "authoredOn": "2021-07-14",
                "requester": {
                    "reference": "Practitioner/eHegI6kXXRDd6IU28WSw0JA3",
                    "type": "Practitioner",
                    "display": "Physician Transplant, MD"
                },
                "recorder": {
                    "reference": "Practitioner/e6ShSa7TZojt5U-MlDw737w3",
                    "type": "Practitioner",
                    "display": "Jenn Scott, MD"
                },
                "courseOfTherapyType": {
                    "coding": [
                        {
                            "system": "http://terminology.hl7.org/CodeSystem/medicationrequest-course-of-therapy",
                            "code": "acute",
                            "display": "Short course (acute) therapy"
                        }
                    ],
                    "text": "Short course (acute) therapy"
                },
                "dosageInstruction": [
                    {
                        "text": "Take 2 capsules (10 mg total) by mouth 1 (one) time each day., Starting Wed 7/14/2021, Until Tue 7/22/2031, Normal",
                        "patientInstruction": "Take 2 capsules (10 mg total) by mouth 1 (one) time each day.",
                        "timing": {
                            "repeat": {
                                "boundsPeriod": {
                                    "start": "2021-07-14"
                                },
                                "count": 3660,
                                "timeOfDay": [
                                    "09:00:00"
                                ]
                            },
                            "code": {
                                "text": "0900"
                            }
                        },
                        "asNeededBoolean": false,
                        "route": {
                            "coding": [
                                {
                                    "system": "http://snomed.info/sct",
                                    "code": "260548002",
                                    "display": "Oral (qualifier value)"
                                },
                                {
                                    "system": "urn:oid:1.2.840.114350.1.13.0.1.7.4.798268.7025",
                                    "code": "15",
                                    "display": "Oral"
                                }
                            ],
                            "text": "Oral"
                        },
                        "method": {
                            "coding": [
                                {
                                    "system": "http://snomed.info/sct",
                                    "code": "419652001",
                                    "display": "Take"
                                }
                            ],
                            "text": "Take"
                        },
                        "doseAndRate": [
                            {
                                "type": {
                                    "coding": [
                                        {
                                            "system": "http://epic.com/CodeSystem/dose-rate-type",
                                            "code": "calculated",
                                            "display": "calculated"
                                        }
                                    ],
                                    "text": "calculated"
                                },
                                "doseQuantity": {
                                    "value": 10,
                                    "unit": "mg",
                                    "system": "http://unitsofmeasure.org",
                                    "code": "mg"
                                }
                            },
                            {
                                "type": {
                                    "coding": [
                                        {
                                            "system": "http://epic.com/CodeSystem/dose-rate-type",
                                            "code": "admin-amount",
                                            "display": "admin-amount"
                                        }
                                    ],
                                    "text": "admin-amount"
                                },
                                "doseQuantity": {
                                    "value": 2,
                                    "unit": "capsule",
                                    "system": "http://unitsofmeasure.org",
                                    "code": "{capsule}"
                                }
                            },
                            {
                                "type": {
                                    "coding": [
                                        {
                                            "system": "http://epic.com/CodeSystem/dose-rate-type",
                                            "code": "ordered",
                                            "display": "ordered"
                                        }
                                    ],
                                    "text": "ordered"
                                },
                                "doseQuantity": {
                                    "value": 10,
                                    "unit": "mg",
                                    "system": "http://unitsofmeasure.org",
                                    "code": "mg"
                                }
                            }
                        ]
                    }
                ],
                "dispenseRequest": {
                    "validityPeriod": {
                        "start": "2021-07-14"
                    },
                    "quantity": {
                        "value": 60,
                        "unit": "capsule"
                    },
                    "expectedSupplyDuration": {
                        "value": 30,
                        "unit": "Day",
                        "system": "http://unitsofmeasure.org",
                        "code": "d"
                    }
                }
            },
            "search": {
                "mode": "match"
            }
        },
        {
            "link": [
                {
                    "relation": "self",
                    "url": "https://appmarket.epic.com/interconnect-amcurprd-oauth/api/FHIR/R4/Medication/eSphL1QQ6gwd4nF2tHBc9R4Pf3S09WdbiRXJUPg2pAnhSa.RzCh1mSa0kr22TWZZU3"
                }
            ],
            "fullUrl": "https://appmarket.epic.com/interconnect-amcurprd-oauth/api/FHIR/R4/Medication/eSphL1QQ6gwd4nF2tHBc9R4Pf3S09WdbiRXJUPg2pAnhSa.RzCh1mSa0kr22TWZZU3",
            "resource": {
                "resourceType": "Medication",
                "id": "eSphL1QQ6gwd4nF2tHBc9R4Pf3S09WdbiRXJUPg2pAnhSa.RzCh1mSa0kr22TWZZU3",
                "code": {
                    "coding": [
                        {
                            "system": "urn:oid:2.16.840.1.113883.6.253",
                            "code": "191442"
                        },
                        {
                            "system": "urn:oid:2.16.840.1.113883.6.68",
                            "code": "2210004500B720"
                        },
                        {
                            "system": "urn:oid:2.16.840.1.113883.6.162",
                            "code": "12101"
                        },
                        {
                            "system": "http://www.nlm.nih.gov/research/umls/rxnorm",
                            "code": "8640"
                        },
                        {
                            "system": "http://www.nlm.nih.gov/research/umls/rxnorm",
                            "code": "763185"
                        }
                    ],
                    "text": "PREDNISONE 10 MG (21) PO TBPK"
                },
                "form": {
                    "coding": [
                        {
                            "system": "urn:oid:1.2.840.114350.1.13.0.1.7.4.698288.310",
                            "code": "TBPK",
                            "display": "tablet therapy pack"
                        }
                    ],
                    "text": "tablet therapy pack"
                },
                "ingredient": [
                    {
                        "itemCodeableConcept": {
                            "coding": [
                                {
                                    "system": "urn:oid:2.16.840.1.113883.6.253",
                                    "code": "191442"
                                },
                                {
                                    "system": "urn:oid:2.16.840.1.113883.6.68",
                                    "code": "2210004500B720"
                                },
                                {
                                    "system": "urn:oid:2.16.840.1.113883.6.162",
                                    "code": "12101"
                                },
                                {
                                    "system": "http://www.nlm.nih.gov/research/umls/rxnorm",
                                    "code": "8640"
                                },
                                {
                                    "system": "http://www.nlm.nih.gov/research/umls/rxnorm",
                                    "code": "763185"
                                }
                            ],
                            "text": "PREDNISONE 10 MG (21) PO TBPK"
                        },
                        "strength": {
                            "numerator": {
                                "value": 10,
                                "unit": "MG (21)"
                            },
                            "denominator": {
                                "value": 10,
                                "unit": "MG (21)"
                            }
                        }
                    }
                ]
            },
            "search": {
                "mode": "include"
            }
        },
        {
            "link": [
                {
                    "relation": "self",
                    "url": "https://appmarket.epic.com/interconnect-amcurprd-oauth/api/FHIR/R4/Medication/eha1ij0WUQW1VJKO8VQR9F7K6buVTaajp9Its66IFFkxuJCfIKaGBbt3fb2Gfcwdk3"
                }
            ],
            "fullUrl": "https://appmarket.epic.com/interconnect-amcurprd-oauth/api/FHIR/R4/Medication/eha1ij0WUQW1VJKO8VQR9F7K6buVTaajp9Its66IFFkxuJCfIKaGBbt3fb2Gfcwdk3",
            "resource": {
                "resourceType": "Medication",
                "id": "eha1ij0WUQW1VJKO8VQR9F7K6buVTaajp9Its66IFFkxuJCfIKaGBbt3fb2Gfcwdk3",
                "code": {
                    "coding": [
                        {
                            "system": "urn:oid:2.16.840.1.113883.6.253",
                            "code": "52030"
                        },
                        {
                            "system": "urn:oid:2.16.840.1.113883.6.68",
                            "code": "99403030100330"
                        },
                        {
                            "system": "urn:oid:2.16.840.1.113883.6.162",
                            "code": "20402"
                        },
                        {
                            "system": "http://www.nlm.nih.gov/research/umls/rxnorm",
                            "code": "68149"
                        },
                        {
                            "system": "http://www.nlm.nih.gov/research/umls/rxnorm",
                            "code": "200060"
                        }
                    ],
                    "text": "mycophenolate (CELLCEPT) tablet 500 mg"
                },
                "form": {
                    "coding": [
                        {
                            "system": "urn:oid:1.2.840.114350.1.13.0.1.7.4.698288.310",
                            "code": "TABS",
                            "display": "tablet"
                        }
                    ],
                    "text": "tablet"
                },
                "ingredient": [
                    {
                        "itemCodeableConcept": {
                            "coding": [
                                {
                                    "system": "urn:oid:2.16.840.1.113883.6.253",
                                    "code": "52030"
                                },
                                {
                                    "system": "urn:oid:2.16.840.1.113883.6.68",
                                    "code": "99403030100330"
                                },
                                {
                                    "system": "urn:oid:2.16.840.1.113883.6.162",
                                    "code": "20402"
                                },
                                {
                                    "system": "http://www.nlm.nih.gov/research/umls/rxnorm",
                                    "code": "68149"
                                },
                                {
                                    "system": "http://www.nlm.nih.gov/research/umls/rxnorm",
                                    "code": "200060"
                                }
                            ],
                            "text": "mycophenolate (CELLCEPT) tablet 500 mg"
                        },
                        "strength": {
                            "numerator": {
                                "value": 500,
                                "unit": "MG",
                                "system": "http://unitsofmeasure.org",
                                "code": "mg"
                            },
                            "denominator": {
                                "value": 500,
                                "unit": "MG",
                                "system": "http://unitsofmeasure.org",
                                "code": "mg"
                            }
                        }
                    }
                ]
            },
            "search": {
                "mode": "include"
            }
        },
        {
            "link": [
                {
                    "relation": "self",
                    "url": "https://appmarket.epic.com/interconnect-amcurprd-oauth/api/FHIR/R4/Medication/ei-EtI8ujcN4qEGZNtmiYLqwNbWP08DupmjG2EvWs0zV6usv0KX8ihLl9Mze4X-0g3"
                }
            ],
            "fullUrl": "https://appmarket.epic.com/interconnect-amcurprd-oauth/api/FHIR/R4/Medication/ei-EtI8ujcN4qEGZNtmiYLqwNbWP08DupmjG2EvWs0zV6usv0KX8ihLl9Mze4X-0g3",
            "resource": {
                "resourceType": "Medication",
                "id": "ei-EtI8ujcN4qEGZNtmiYLqwNbWP08DupmjG2EvWs0zV6usv0KX8ihLl9Mze4X-0g3",
                "code": {
                    "coding": [
                        {
                            "system": "urn:oid:2.16.840.1.113883.6.253",
                            "code": "34840"
                        },
                        {
                            "system": "urn:oid:2.16.840.1.113883.6.68",
                            "code": "99404080000120"
                        },
                        {
                            "system": "urn:oid:2.16.840.1.113883.6.162",
                            "code": "11424"
                        },
                        {
                            "system": "http://www.nlm.nih.gov/research/umls/rxnorm",
                            "code": "42316"
                        },
                        {
                            "system": "http://www.nlm.nih.gov/research/umls/rxnorm",
                            "code": "198378"
                        }
                    ],
                    "text": "tacrolimus (PROGRAF) capsule"
                },
                "form": {
                    "coding": [
                        {
                            "system": "urn:oid:1.2.840.114350.1.13.0.1.7.4.698288.310",
                            "code": "CAPS",
                            "display": "capsule"
                        }
                    ],
                    "text": "capsule"
                },
                "ingredient": [
                    {
                        "itemCodeableConcept": {
                            "coding": [
                                {
                                    "system": "urn:oid:2.16.840.1.113883.6.253",
                                    "code": "34840"
                                },
                                {
                                    "system": "urn:oid:2.16.840.1.113883.6.68",
                                    "code": "99404080000120"
                                },
                                {
                                    "system": "urn:oid:2.16.840.1.113883.6.162",
                                    "code": "11424"
                                },
                                {
                                    "system": "http://www.nlm.nih.gov/research/umls/rxnorm",
                                    "code": "42316"
                                },
                                {
                                    "system": "http://www.nlm.nih.gov/research/umls/rxnorm",
                                    "code": "198378"
                                }
                            ],
                            "text": "tacrolimus (PROGRAF) capsule"
                        },
                        "strength": {
                            "numerator": {
                                "value": 5,
                                "unit": "MG",
                                "system": "http://unitsofmeasure.org",
                                "code": "mg"
                            },
                            "denominator": {
                                "value": 5,
                                "unit": "MG",
                                "system": "http://unitsofmeasure.org",
                                "code": "mg"
                            }
                        }
                    }
                ]
            },
            "search": {
                "mode": "include"
            }
        },
        {
            "link": [
                {
                    "relation": "self",
                    "url": "https://appmarket.epic.com/interconnect-amcurprd-oauth/api/FHIR/R4/Patient/eiyTTBLEMcm6ZLYF5TkiTdA3"
                }
            ],
            "fullUrl": "https://appmarket.epic.com/interconnect-amcurprd-oauth/api/FHIR/R4/Patient/eiyTTBLEMcm6ZLYF5TkiTdA3",
            "resource": {
                "resourceType": "Patient",
                "id": "eiyTTBLEMcm6ZLYF5TkiTdA3",
                "extension": [
                    {
                        "extension": [
                            {
                                "valueCoding": {
                                    "system": "urn:oid:2.16.840.1.113883.6.238",
                                    "code": "2106-3",
                                    "display": "White"
                                },
                                "url": "ombCategory"
                            },
                            {
                                "valueString": "White",
                                "url": "text"
                            }
                        ],
                        "url": "http://hl7.org/fhir/us/core/StructureDefinition/us-core-race"
                    },
                    {
                        "extension": [
                            {
                                "valueCoding": {
                                    "system": "urn:oid:2.16.840.1.113883.6.238",
                                    "code": "2186-5",
                                    "display": "Not Hispanic or Latino"
                                },
                                "url": "ombCategory"
                            },
                            {
                                "valueString": "Not Hispanic or Latino",
                                "url": "text"
                            }
                        ],
                        "url": "http://hl7.org/fhir/us/core/StructureDefinition/us-core-ethnicity"
                    },
                    {
                        "valueCodeableConcept": {
                            "coding": [
                                {
                                    "system": "urn:oid:1.2.840.114350.1.13.0.1.7.10.698084.130.657370.19999000",
                                    "code": "female",
                                    "display": "female"
                                }
                            ]
                        },
                        "url": "http://open.epic.com/FHIR/StructureDefinition/extension/legal-sex"
                    },
                    {
                        "valueCodeableConcept": {
                            "coding": [
                                {
                                    "system": "urn:oid:1.2.840.114350.1.13.0.1.7.10.698084.130.657370.19999000",
                                    "code": "female",
                                    "display": "female"
                                }
                            ]
                        },
                        "url": "http://open.epic.com/FHIR/StructureDefinition/extension/sex-for-clinical-use"
                    },
                    {
                        "valueCode": "F",
                        "url": "http://hl7.org/fhir/us/core/StructureDefinition/us-core-birthsex"
                    }
                ],
                "identifier": [
                    {
                        "use": "usual",
                        "system": "urn:oid:2.16.840.1.113883.4.1",
                        "value": "677-52-3386"
                    },
                    {
                        "use": "usual",
                        "type": {
                            "text": "CEID"
                        },
                        "system": "urn:epic:apporchard.curprod",
                        "value": "AO1CTWD24WZL9VN"
                    },
                    {
                        "use": "usual",
                        "type": {
                            "text": "EPIC"
                        },
                        "system": "urn:oid:1.2.840.114350.1.1",
                        "value": "E3117"
                    },
                    {
                        "use": "usual",
                        "type": {
                            "text": "EXTERNAL"
                        },
                        "system": "urn:oid:1.2.840.114350.1.13.0.1.7.2.698084",
                        "value": "Z5037"
                    },
                    {
                        "use": "usual",
                        "type": {
                            "text": "FHIR"
                        },
                        "system": "http://open.epic.com/FHIR/StructureDefinition/patient-dstu2-fhir-id",
                        "value": "Twblw7YxkkqwTPuKIrhA3XYVAAWGI0fGuexJbikj95-UB"
                    },
                    {
                        "use": "usual",
                        "type": {
                            "text": "FHIR STU3"
                        },
                        "system": "http://open.epic.com/FHIR/StructureDefinition/patient-fhir-id",
                        "value": "eiyTTBLEMcm6ZLYF5TkiTdA3"
                    },
                    {
                        "use": "usual",
                        "type": {
                            "text": "INTERNAL"
                        },
                        "system": "urn:oid:1.2.840.114350.1.13.0.1.7.2.698084",
                        "value": "     Z5037"
                    },
                    {
                        "use": "usual",
                        "type": {
                            "text": "MRN"
                        },
                        "system": "urn:oid:1.2.840.114350.1.13.0.1.7.5.737384.14",
                        "value": "202867"
                    },
                    {
                        "use": "usual",
                        "system": "https://open.epic.com/FHIR/StructureDefinition/PayerMemberId",
                        "value": "987654321A"
                    }
                ],
                "active": true,
                "name": [
                    {
                        "use": "official",
                        "text": "Kathryn A Kidney",
                        "family": "Kidney",
                        "given": [
                            "Kathryn",
                            "A"
                        ]
                    },
                    {
                        "use": "usual",
                        "text": "Kathryn A Kidney",
                        "family": "Kidney",
                        "given": [
                            "Kathryn",
                            "A"
                        ]
                    }
                ],
                "gender": "female",
                "birthDate": "1966-04-12",
                "deceasedBoolean": false,
                "address": [
                    {
                        "use": "old",
                        "line": [
                            "123 Glen Oaks"
                        ],
                        "city": "Madison",
                        "state": "WI",
                        "postalCode": "53711",
                        "country": "US"
                    },
                    {
                        "use": "home",
                        "line": [
                            "123 Glen Oaks"
                        ],
                        "city": "Madison",
                        "state": "WI",
                        "postalCode": "53711",
                        "country": "US"
                    }
                ],
                "maritalStatus": {
                    "text": "Single"
                },
                "contact": [
                    {
                        "relationship": [
                            {
                                "coding": [
                                    {
                                        "system": "http://terminology.hl7.org/CodeSystem/v2-0131",
                                        "code": "E",
                                        "display": "Employer"
                                    }
                                ]
                            }
                        ],
                        "organization": {
                            "display": "Other"
                        }
                    }
                ],
                "communication": [
                    {
                        "language": {
                            "coding": [
                                {
                                    "system": "urn:ietf:bcp:47",
                                    "code": "en",
                                    "display": "English"
                                }
                            ],
                            "text": "English"
                        },
                        "preferred": true
                    }
                ],
                "managingOrganization": {
                    "reference": "Organization/enRyWnSP963FYDpoks4NHOA3",
                    "display": "Epic Hospital System"
                }
            },
            "search": {
                "mode": "include"
            }
        }
    ]
}