{
    "resourceType": "Bundle",
    "type": "searchset",
    "total": 5,
    "link": [
        {
            "relation": "self",
            "url": "https://appmarket.epic.com/interconnect-amcurprd-oauth/api/FHIR/R4/MedicationRequest?_include=MedicationRequest:medicationReference&_include=MedicationRequest:subject&_format=json&patient=eAvIyaRRAycxAsRVIAKERKw3"
        }
    ],
    "entry": [
        {
            "link": [
                {
                    "relation": "self",
                    "url": "https://appmarket.epic.com/interconnect-amcurprd-oauth/api/FHIR/R4/MedicationRequest/e3561MO32wbeQ9nO721dFcA3"
                }
            ],
            "fullUrl": "https://appmarket.epic.com/interconnect-amcurprd-oauth/api/FHIR/R4/MedicationRequest/e3561MO32wbeQ9nO721dFcA3",
            "resource": {
                "resourceType": "MedicationRequest",
                "id": "e3561MO32wbeQ9nO721dFcA3",
                "identifier": [
                    {
                        "use": "usual",
                        "system": "urn:oid:1.2.840.114350.1.13.0.1.7.2.798268",
                        "value": "927991"
                    }
                ],
                "status": "active",
                "intent": "order",
                "category": [
                    {
                        "coding": [
                            {
                                "system": "http://terminology.hl7.org/CodeSystem/medicationrequest-category",
                                "code": "community",
                                "display": "Community"
                            }
                        ],
                        "text": "Community"
                    }
                ],
                "medicationReference": {
                    "reference": "Medication/evDZhLVSmu6BHFwLwgMHKYKQqsnOqX07inqJAHGEy4CrXeiUMERg5YPRL5QLfJV5c3",
                    "display": "dornase alpha (PULMOZYME) nebulizer solution 1 mg/mL"
                },
                "subject": {
                    "reference": "Patient/eAvIyaRRAycxAsRVIAKERKw3",
                    "display": "Zztransplant, Patient R"
                },
                "encounter": {
                    "reference": "Encounter/eDiAAt2O5.8Iy0pnvIr-Gqg3",
                    "identifier": {
                        "use": "usual",
                        "system": "urn:oid:1.2.840.114350.1.13.0.1.7.3.698084.8",
                        "value": "16010"
                    },
                    "display": "Office Visit"
                },
                "authoredOn": "2014-06-30",
                "requester": {
                    "reference": "Practitioner/eJNlquV-tJUJuScDWkfQTmA3",
                    "type": "Practitioner",
                    "display": "Physician Pulmonary, MD"
                },
                "recorder": {
                    "reference": "Practitioner/eJNlquV-tJUJuScDWkfQTmA3",
                    "type": "Practitioner",
                    "display": "Physician Pulmonary, MD"
                },
                "reasonCode": [
                    {
                        "coding": [
                            {
                                "system": "http://snomed.info/sct",
                                "code": "13645005",
                                "display": "Chronic obstructive lung disease (disorder)"
                            },
                            {
                                "system": "http://hl7.org/fhir/sid/icd-9-cm/diagnosis",
                                "code": "496",
                                "display": "COPD (chronic obstructive pulmonary disease) (CMS/HCC)"
                            },
                            {
                                "system": "http://hl7.org/fhir/sid/icd-10-cm",
                                "code": "J44.9",
                                "display": "COPD (chronic obstructive pulmonary disease) (CMS/HCC)"
                            }
                        ],
                        "text": "COPD (chronic obstructive pulmonary disease) (CMS/HCC)"
                    },
                    {
                        "coding": [
                            {
                                "system": "http://snomed.info/sct",
                                "code": "190905008",
                                "display": "Cystic fibrosis (disorder)"
                            },
                            {
                                "system": "http://hl7.org/fhir/sid/icd-9-cm/diagnosis",
                                "code": "277.00",
                                "display": "Cystic fibrosis (CMS/HCC)"
                            },
                            {
                                "system": "http://hl7.org/fhir/sid/icd-10-cm",
                                "code": "E84.9",
                                "display": "Cystic fibrosis (CMS/HCC)"
                            }
                        ],
                        "text": "Cystic fibrosis (CMS/HCC)"
                    }
                ],
                "courseOfTherapyType": {
                    "coding": [
                        {
                            "system": "http://terminology.hl7.org/CodeSystem/medicationrequest-course-of-therapy",
                            "code": "acute",
                            "display": "Short course (acute) therapy"
                        }
                    ],
                    "text": "Short course (acute) therapy"
                },
                "dosageInstruction": [
                    {
                        "text": "Inhale 2.5 mg once daily., Starting Mon 6/30/2014, Print",
                        "patientInstruction": "Inhale 2.5 mg once daily.",
                        "timing": {
                            "repeat": {
                                "boundsPeriod": {
                                    "start": "2014-06-30"
                                },
                                "timeOfDay": [
                                    "08:00:00"
                                ]
                            },
                            "code": {
                                "text": "Respiratory use only - once daily at 0800"
                            }
                        },
                        "asNeededBoolean": false,
                        "route": {
                            "coding": [
                                {
                                    "system": "urn:oid:1.2.840.114350.1.13.0.1.7.4.798268.7025",
                                    "code": "7",
                                    "display": "Inhalation"
                                }
                            ],
                            "text": "Inhalation"
                        },
                        "doseAndRate": [
                            {
                                "type": {
                                    "coding": [
                                        {
                                            "system": "http://epic.com/CodeSystem/dose-rate-type",
                                            "code": "calculated",
                                            "display": "calculated"
                                        }
                                    ],
                                    "text": "calculated"
                                },
                                "doseQuantity": {
                                    "value": 2.5,
                                    "unit": "mg",
                                    "system": "http://unitsofmeasure.org",
                                    "code": "mg"
                                }
                            },
                            {
                                "type": {
                                    "coding": [
                                        {
                                            "system": "http://epic.com/CodeSystem/dose-rate-type",
                                            "code": "admin-amount",
                                            "display": "admin-amount"
                                        }
                                    ],
                                    "text": "admin-amount"
                                },
                                "doseQuantity": {
                                    "value": 2.5,
                                    "unit": "mg",
                                    "system": "http://unitsofmeasure.org",
                                    "code": "mg"
                                }
                            },
                            {
                                "type": {
                                    "coding": [
                                        {
                                            "system": "http://epic.com/CodeSystem/dose-rate-type",
                                            "code": "ordered",
                                            "display": "ordered"
                                        }
                                    ],
                                    "text": "ordered"
                                },
                                "doseQuantity": {
                                    "value": 2.5,
                                    "unit": "mg",
                                    "system": "http://unitsofmeasure.org",
                                    "code": "mg"
                                }
                            }
                        ]
                    }
                ],
                "dispenseRequest": {
                    "validityPeriod": {
                        "start": "2014-06-30"
                    },
                    "numberOfRepeatsAllowed": 3,
                    "quantity": {
                        "value": 250,
                        "unit": "mL"
                    },
                    "expectedSupplyDuration": {
                        "value": 100,
                        "unit": "Day",
                        "system": "http://unitsofmeasure.org",
                        "code": "d"
                    }
                },
                "priorPrescription": {
                    "reference": "MedicationRequest/e64W14-4YiMy2Ew4Ai4YPqw3",
                    "display": "dornase alpha (PULMOZYME) 1 MG/ML nebulizer solution"
                }
            },
            "search": {
                "mode": "match"
            }
        },
        {
            "link": [
                {
                    "relation": "self",
                    "url": "https://appmarket.epic.com/interconnect-amcurprd-oauth/api/FHIR/R4/MedicationRequest/e64W14-4YiMy2Ew4Ai4YPqw3"
                }
            ],
            "fullUrl": "https://appmarket.epic.com/interconnect-amcurprd-oauth/api/FHIR/R4/MedicationRequest/e64W14-4YiMy2Ew4Ai4YPqw3",
            "resource": {
                "resourceType": "MedicationRequest",
                "id": "e64W14-4YiMy2Ew4Ai4YPqw3",
                "identifier": [
                    {
                        "use": "usual",
                        "system": "urn:oid:1.2.840.114350.1.13.0.1.7.2.798268",
                        "value": "956743"
                    }
                ],
                "status": "stopped",
                "intent": "order",
                "category": [
                    {
                        "coding": [
                            {
                                "system": "http://terminology.hl7.org/CodeSystem/medicationrequest-category",
                                "code": "community",
                                "display": "Community"
                            }
                        ],
                        "text": "Community"
                    }
                ],
                "medicationReference": {
                    "reference": "Medication/evDZhLVSmu6BHFwLwgMHKYNmHtLBZdfI1y32t17OAoJ3lGv0i16wodd2Re7t4mpUD3",
                    "display": "dornase alpha (PULMOZYME) nebulizer solution 1 mg/mL"
                },
                "subject": {
                    "reference": "Patient/eAvIyaRRAycxAsRVIAKERKw3",
                    "display": "Zztransplant, Patient R"
                },
                "encounter": {
                    "reference": "Encounter/etQmIcxTsfcfjSZh1MAX1SA3",
                    "identifier": {
                        "use": "usual",
                        "system": "urn:oid:1.2.840.114350.1.13.0.1.7.3.698084.8",
                        "value": "16008"
                    },
                    "display": "Office Visit"
                },
                "authoredOn": "2014-01-01",
                "requester": {
                    "reference": "Practitioner/eJNlquV-tJUJuScDWkfQTmA3",
                    "type": "Practitioner",
                    "display": "Physician Pulmonary, MD"
                },
                "recorder": {
                    "reference": "Practitioner/eJNlquV-tJUJuScDWkfQTmA3",
                    "type": "Practitioner",
                    "display": "Physician Pulmonary, MD"
                },
                "reasonCode": [
                    {
                        "coding": [
                            {
                                "system": "http://snomed.info/sct",
                                "code": "13645005",
                                "display": "Chronic obstructive lung disease (disorder)"
                            },
                            {
                                "system": "http://hl7.org/fhir/sid/icd-9-cm/diagnosis",
                                "code": "496",
                                "display": "COPD (chronic obstructive pulmonary disease) (CMS/HCC)"
                            },
                            {
                                "system": "http://hl7.org/fhir/sid/icd-10-cm",
                                "code": "J44.9",
                                "display": "COPD (chronic obstructive pulmonary disease) (CMS/HCC)"
                            }
                        ],
                        "text": "COPD (chronic obstructive pulmonary disease) (CMS/HCC)"
                    },
                    {
                        "coding": [
                            {
                                "system": "http://snomed.info/sct",
                                "code": "190905008",
                                "display": "Cystic fibrosis (disorder)"
                            },
                            {
                                "system": "http://hl7.org/fhir/sid/icd-9-cm/diagnosis",
                                "code": "277.00",
                                "display": "Cystic fibrosis (CMS/HCC)"
                            },
                            {
                                "system": "http://hl7.org/fhir/sid/icd-10-cm",
                                "code": "E84.9",
                                "display": "Cystic fibrosis (CMS/HCC)"
                            }
                        ],
                        "text": "Cystic fibrosis (CMS/HCC)"
                    }
                ],
                "courseOfTherapyType": {
                    "coding": [
                        {
                            "system": "http://terminology.hl7.org/CodeSystem/medicationrequest-course-of-therapy",
                            "code": "acute",
                            "display": "Short course (acute) therapy"
                        }
                    ],
                    "text": "Short course (acute) therapy"
                },
                "dosageInstruction": [
                    {
                        "text": "Inhale 2.5 mg once daily., Starting 1/1/2014, Until Mon 6/30/14, Print",
                        "patientInstruction": "Inhale 2.5 mg once daily.",
                        "timing": {
                            "repeat": {
                                "boundsPeriod": {
                                    "start": "2014-01-01",
                                    "end": "2014-06-30"
                                },
                                "timeOfDay": [
                                    "08:00:00"
                                ]
                            },
                            "code": {
                                "text": "Respiratory use only - once daily at 0800"
                            }
                        },
                        "asNeededBoolean": false,
                        "route": {
                            "coding": [
                                {
                                    "system": "urn:oid:1.2.840.114350.1.13.0.1.7.4.798268.7025",
                                    "code": "7",
                                    "display": "Inhalation"
                                }
                            ],
                            "text": "Inhalation"
                        },
                        "doseAndRate": [
                            {
                                "type": {
                                    "coding": [
                                        {
                                            "system": "http://epic.com/CodeSystem/dose-rate-type",
                                            "code": "calculated",
                                            "display": "calculated"
                                        }
                                    ],
                                    "text": "calculated"
                                },
                                "doseQuantity": {
                                    "value": 2.5,
                                    "unit": "mg",
                                    "system": "http://unitsofmeasure.org",
                                    "code": "mg"
                                }
                            },
                            {
                                "type": {
                                    "coding": [
                                        {
                                            "system": "http://epic.com/CodeSystem/dose-rate-type",
                                            "code": "admin-amount",
                                            "display": "admin-amount"
                                        }
                                    ],
                                    "text": "admin-amount"
                                },
                                "doseQuantity": {
                                    "value": 2.5,
                                    "unit": "mg",
                                    "system": "http://unitsofmeasure.org",
                                    "code": "mg"
                                }
                            },
                            {
                                "type": {
                                    "coding": [
                                        {
                                            "system": "http://epic.com/CodeSystem/dose-rate-type",
                                            "code": "ordered",
                                            "display": "ordered"
                                        }
                                    ],
                                    "text": "ordered"
                                },
                                "doseQuantity": {
                                    "value": 2.5,
                                    "unit": "mg",
                                    "system": "http://unitsofmeasure.org",
                                    "code": "mg"
                                }
                            }
                        ]
                    }
                ],
                "dispenseRequest": {
                    "validityPeriod": {
                        "start": "2014-01-01",
                        "end": "2014-06-30"
                    },
                    "numberOfRepeatsAllowed": 3,
                    "quantity": {
                        "value": 250,
                        "unit": "mL"
                    },
                    "expectedSupplyDuration": {
                        "value": 100,
                        "unit": "Day",
                        "system": "http://unitsofmeasure.org",
                        "code": "d"
                    }
                },
                "priorPrescription": {
                    "reference": "MedicationRequest/ein7fmOfAEwI-Vk9zCftTjQ3",
                    "display": "dornase alpha (PULMOZYME) 1 MG/ML nebulizer solution"
                }
            },
            "search": {
                "mode": "match"
            }
        },
        {
            "link": [
                {
                    "relation": "self",
                    "url": "https://appmarket.epic.com/interconnect-amcurprd-oauth/api/FHIR/R4/MedicationRequest/eOSxXHvTO5haFqzSOgFRt3A3"
                }
            ],
            "fullUrl": "https://appmarket.epic.com/interconnect-amcurprd-oauth/api/FHIR/R4/MedicationRequest/eOSxXHvTO5haFqzSOgFRt3A3",
            "resource": {
                "resourceType": "MedicationRequest",
                "id": "eOSxXHvTO5haFqzSOgFRt3A3",
                "identifier": [
                    {
                        "use": "usual",
                        "system": "urn:oid:1.2.840.114350.1.13.0.1.7.2.798268",
                        "value": "928003"
                    }
                ],
                "status": "active",
                "intent": "order",
                "category": [
                    {
                        "coding": [
                            {
                                "system": "http://terminology.hl7.org/CodeSystem/medicationrequest-category",
                                "code": "community",
                                "display": "Community"
                            }
                        ],
                        "text": "Community"
                    }
                ],
                "medicationReference": {
                    "reference": "Medication/ehLfCobv49VFaQ93CpZLCWqN3sGgopKxrmiL9xTtRYiRKKWla0izHXPdwQXHkIMug3",
                    "display": "fluticasone (FLOVENT HFA) inhaler 110 mcg/act"
                },
                "subject": {
                    "reference": "Patient/eAvIyaRRAycxAsRVIAKERKw3",
                    "display": "Zztransplant, Patient R"
                },
                "encounter": {
                    "reference": "Encounter/eDiAAt2O5.8Iy0pnvIr-Gqg3",
                    "identifier": {
                        "use": "usual",
                        "system": "urn:oid:1.2.840.114350.1.13.0.1.7.3.698084.8",
                        "value": "16010"
                    },
                    "display": "Office Visit"
                },
                "authoredOn": "2014-06-30",
                "requester": {
                    "reference": "Practitioner/eJNlquV-tJUJuScDWkfQTmA3",
                    "type": "Practitioner",
                    "display": "Physician Pulmonary, MD"
                },
                "recorder": {
                    "reference": "Practitioner/eJNlquV-tJUJuScDWkfQTmA3",
                    "type": "Practitioner",
                    "display": "Physician Pulmonary, MD"
                },
                "courseOfTherapyType": {
                    "coding": [
                        {
                            "system": "http://terminology.hl7.org/CodeSystem/medicationrequest-course-of-therapy",
                            "code": "acute",
                            "display": "Short course (acute) therapy"
                        }
                    ],
                    "text": "Short course (acute) therapy"
                },
                "dosageInstruction": [
                    {
                        "text": "Inhale 1 puff 2 (two) times a day., Starting Mon 6/30/2014, Print",
                        "patientInstruction": "Inhale 1 puff 2 (two) times a day.",
                        "timing": {
                            "repeat": {
                                "boundsPeriod": {
                                    "start": "2014-06-30"
                                },
                                "timeOfDay": [
                                    "09:00:00",
                                    "21:00:00"
                                ]
                            },
                            "code": {
                                "text": "Respiratory use only - 0900, 2100"
                            }
                        },
                        "asNeededBoolean": false,
                        "route": {
                            "coding": [
                                {
                                    "system": "urn:oid:1.2.840.114350.1.13.0.1.7.4.798268.7025",
                                    "code": "7",
                                    "display": "Inhalation"
                                }
                            ],
                            "text": "Inhalation"
                        },
                        "doseAndRate": [
                            {
                                "type": {
                                    "coding": [
                                        {
                                            "system": "http://epic.com/CodeSystem/dose-rate-type",
                                            "code": "calculated",
                                            "display": "calculated"
                                        }
                                    ],
                                    "text": "calculated"
                                },
                                "doseQuantity": {
                                    "value": 1,
                                    "unit": "puff",
                                    "system": "http://unitsofmeasure.org",
                                    "code": "{puff}"
                                }
                            },
                            {
                                "type": {
                                    "coding": [
                                        {
                                            "system": "http://epic.com/CodeSystem/dose-rate-type",
                                            "code": "admin-amount",
                                            "display": "admin-amount"
                                        }
                                    ],
                                    "text": "admin-amount"
                                },
                                "doseQuantity": {
                                    "value": 1,
                                    "unit": "puff",
                                    "system": "http://unitsofmeasure.org",
                                    "code": "{puff}"
                                }
                            },
                            {
                                "type": {
                                    "coding": [
                                        {
                                            "system": "http://epic.com/CodeSystem/dose-rate-type",
                                            "code": "ordered",
                                            "display": "ordered"
                                        }
                                    ],
                                    "text": "ordered"
                                },
                                "doseQuantity": {
                                    "value": 1,
                                    "unit": "puff",
                                    "system": "http://unitsofmeasure.org",
                                    "code": "{puff}"
                                }
                            }
                        ]
                    }
                ],
                "dispenseRequest": {
                    "validityPeriod": {
                        "start": "2014-06-30"
                    },
                    "numberOfRepeatsAllowed": 3,
                    "quantity": {
                        "value": 12,
                        "unit": "g"
                    }
                },
                "priorPrescription": {
                    "reference": "MedicationRequest/ei6UPiv3MHULwXtUeRGbw0w3",
                    "display": "fluticasone (FLOVENT HFA) 110 MCG/ACT inhaler"
                }
            },
            "search": {
                "mode": "match"
            }
        },
        {
            "link": [
                {
                    "relation": "self",
                    "url": "https://appmarket.epic.com/interconnect-amcurprd-oauth/api/FHIR/R4/MedicationRequest/ei6UPiv3MHULwXtUeRGbw0w3"
                }
            ],
            "fullUrl": "https://appmarket.epic.com/interconnect-amcurprd-oauth/api/FHIR/R4/MedicationRequest/ei6UPiv3MHULwXtUeRGbw0w3",
            "resource": {
                "resourceType": "MedicationRequest",
                "id": "ei6UPiv3MHULwXtUeRGbw0w3",
                "identifier": [
                    {
                        "use": "usual",
                        "system": "urn:oid:1.2.840.114350.1.13.0.1.7.2.798268",
                        "value": "956741"
                    }
                ],
                "status": "stopped",
                "intent": "plan",
                "category": [
                    {
                        "coding": [
                            {
                                "system": "http://terminology.hl7.org/CodeSystem/medicationrequest-category",
                                "code": "community",
                                "display": "Community"
                            }
                        ],
                        "text": "Community"
                    }
                ],
                "reportedBoolean": true,
                "medicationReference": {
                    "reference": "Medication/ehLfCobv49VFaQ93CpZLCWtdb6vhLddt.bqc-SptA2k0aUoYQfTMJUxMZJ6vs3.n53",
                    "display": "fluticasone (FLOVENT HFA) inhaler 110 mcg/act"
                },
                "subject": {
                    "reference": "Patient/eAvIyaRRAycxAsRVIAKERKw3",
                    "display": "Zztransplant, Patient R"
                },
                "encounter": {
                    "reference": "Encounter/etQmIcxTsfcfjSZh1MAX1SA3",
                    "identifier": {
                        "use": "usual",
                        "system": "urn:oid:1.2.840.114350.1.13.0.1.7.3.698084.8",
                        "value": "16008"
                    },
                    "display": "Office Visit"
                },
                "authoredOn": "2014-01-01T19:47:23Z",
                "requester": {
                    "extension": [
                        {
                            "valueCode": "unknown",
                            "url": "http://hl7.org/fhir/StructureDefinition/data-absent-reason"
                        }
                    ]
                },
                "recorder": {
                    "reference": "Practitioner/erqn5oyiA9.LpVQkQ2Ulmgg3",
                    "type": "Practitioner",
                    "display": "Nurse Family Medicine, RN"
                },
                "courseOfTherapyType": {
                    "coding": [
                        {
                            "system": "http://terminology.hl7.org/CodeSystem/medicationrequest-course-of-therapy",
                            "code": "acute",
                            "display": "Short course (acute) therapy"
                        }
                    ],
                    "text": "Short course (acute) therapy"
                },
                "dosageInstruction": [
                    {
                        "text": "Inhale 1 puff 2 (two) times a day., Starting 1/1/2013, Until Mon 6/30/14, Historical Med",
                        "patientInstruction": "Inhale 1 puff 2 (two) times a day.",
                        "timing": {
                            "repeat": {
                                "boundsPeriod": {
                                    "start": "2013-01-01",
                                    "end": "2014-06-30"
                                },
                                "timeOfDay": [
                                    "09:00:00",
                                    "21:00:00"
                                ]
                            },
                            "code": {
                                "text": "Respiratory use only - 0900, 2100"
                            }
                        },
                        "asNeededBoolean": false,
                        "route": {
                            "coding": [
                                {
                                    "system": "urn:oid:1.2.840.114350.1.13.0.1.7.4.798268.7025",
                                    "code": "7",
                                    "display": "Inhalation"
                                }
                            ],
                            "text": "Inhalation"
                        },
                        "doseAndRate": [
                            {
                                "type": {
                                    "coding": [
                                        {
                                            "system": "http://epic.com/CodeSystem/dose-rate-type",
                                            "code": "ordered",
                                            "display": "ordered"
                                        }
                                    ],
                                    "text": "ordered"
                                },
                                "doseQuantity": {
                                    "value": 1,
                                    "unit": "puff",
                                    "system": "http://unitsofmeasure.org",
                                    "code": "{puff}"
                                }
                            }
                        ]
                    }
                ]
            },
            "search": {
                "mode": "match"
            }
        },
        {
            "link": [
                {
                    "relation": "self",
                    "url": "https://appmarket.epic.com/interconnect-amcurprd-oauth/api/FHIR/R4/MedicationRequest/ein7fmOfAEwI-Vk9zCftTjQ3"
                }
            ],
            "fullUrl": "https://appmarket.epic.com/interconnect-amcurprd-oauth/api/FHIR/R4/MedicationRequest/ein7fmOfAEwI-Vk9zCftTjQ3",
            "resource": {
                "resourceType": "MedicationRequest",
                "id": "ein7fmOfAEwI-Vk9zCftTjQ3",
                "identifier": [
                    {
                        "use": "usual",
                        "system": "urn:oid:1.2.840.114350.1.13.0.1.7.2.798268",
                        "value": "956742"
                    }
                ],
                "status": "stopped",
                "intent": "plan",
                "category": [
                    {
                        "coding": [
                            {
                                "system": "http://terminology.hl7.org/CodeSystem/medicationrequest-category",
                                "code": "community",
                                "display": "Community"
                            }
                        ],
                        "text": "Community"
                    }
                ],
                "reportedBoolean": true,
                "medicationReference": {
                    "reference": "Medication/evDZhLVSmu6BHFwLwgMHKYB.ciLxf-R.xf31muf8qYFxI0jecjFDPSnGVM9gLZq033",
                    "display": "dornase alpha (PULMOZYME) nebulizer solution 1 mg/mL"
                },
                "subject": {
                    "reference": "Patient/eAvIyaRRAycxAsRVIAKERKw3",
                    "display": "Zztransplant, Patient R"
                },
                "encounter": {
                    "reference": "Encounter/etQmIcxTsfcfjSZh1MAX1SA3",
                    "identifier": {
                        "use": "usual",
                        "system": "urn:oid:1.2.840.114350.1.13.0.1.7.3.698084.8",
                        "value": "16008"
                    },
                    "display": "Office Visit"
                },
                "authoredOn": "2014-01-01T19:47:24Z",
                "requester": {
                    "extension": [
                        {
                            "valueCode": "unknown",
                            "url": "http://hl7.org/fhir/StructureDefinition/data-absent-reason"
                        }
                    ]
                },
                "recorder": {
                    "reference": "Practitioner/erqn5oyiA9.LpVQkQ2Ulmgg3",
                    "type": "Practitioner",
                    "display": "Nurse Family Medicine, RN"
                },
                "courseOfTherapyType": {
                    "coding": [
                        {
                            "system": "http://terminology.hl7.org/CodeSystem/medicationrequest-course-of-therapy",
                            "code": "acute",
                            "display": "Short course (acute) therapy"
                        }
                    ],
                    "text": "Short course (acute) therapy"
                },
                "dosageInstruction": [
                    {
                        "text": "Inhale 2.5 mg once daily., Until Wed 1/1/14, Historical Med",
                        "patientInstruction": "Inhale 2.5 mg once daily.",
                        "timing": {
                            "repeat": {
                                "boundsPeriod": {
                                    "end": "2014-01-01"
                                },
                                "timeOfDay": [
                                    "08:00:00"
                                ]
                            },
                            "code": {
                                "text": "Respiratory use only - once daily at 0800"
                            }
                        },
                        "asNeededBoolean": false,
                        "route": {
                            "coding": [
                                {
                                    "system": "urn:oid:1.2.840.114350.1.13.0.1.7.4.798268.7025",
                                    "code": "7",
                                    "display": "Inhalation"
                                }
                            ],
                            "text": "Inhalation"
                        },
                        "doseAndRate": [
                            {
                                "type": {
                                    "coding": [
                                        {
                                            "system": "http://epic.com/CodeSystem/dose-rate-type",
                                            "code": "ordered",
                                            "display": "ordered"
                                        }
                                    ],
                                    "text": "ordered"
                                },
                                "doseQuantity": {
                                    "value": 2.5,
                                    "unit": "mg",
                                    "system": "http://unitsofmeasure.org",
                                    "code": "mg"
                                }
                            }
                        ]
                    }
                ]
            },
            "search": {
                "mode": "match"
            }
        },
        {
            "link": [
                {
                    "relation": "self",
                    "url": "https://appmarket.epic.com/interconnect-amcurprd-oauth/api/FHIR/R4/Patient/eAvIyaRRAycxAsRVIAKERKw3"
                }
            ],
            "fullUrl": "https://appmarket.epic.com/interconnect-amcurprd-oauth/api/FHIR/R4/Patient/eAvIyaRRAycxAsRVIAKERKw3",
            "resource": {
                "resourceType": "Patient",
                "id": "eAvIyaRRAycxAsRVIAKERKw3",
                "extension": [
                    {
                        "extension": [
                            {
                                "valueCoding": {
                                    "system": "urn:oid:2.16.840.1.113883.6.238",
                                    "code": "2106-3",
                                    "display": "White"
                                },
                                "url": "ombCategory"
                            },
                            {
                                "valueString": "White",
                                "url": "text"
                            }
                        ],
                        "url": "http://hl7.org/fhir/us/core/StructureDefinition/us-core-race"
                    },
                    {
                        "extension": [
                            {
                                "valueCoding": {
                                    "system": "urn:oid:2.16.840.1.113883.6.238",
                                    "code": "2186-5",
                                    "display": "Not Hispanic or Latino"
                                },
                                "url": "ombCategory"
                            },
                            {
                                "valueString": "Not Hispanic or Latino",
                                "url": "text"
                            }
                        ],
                        "url": "http://hl7.org/fhir/us/core/StructureDefinition/us-core-ethnicity"
                    },
                    {
                        "valueCodeableConcept": {
                            "coding": [
                                {
                                    "system": "urn:oid:1.2.840.114350.1.13.0.1.7.10.698084.130.657370.19999000",
                                    "code": "male",
                                    "display": "male"
                                }
                            ]
                        },
                        "url": "http://open.epic.com/FHIR/StructureDefinition/extension/legal-sex"
                    },
                    {
                        "valueCodeableConcept": {
                            "coding": [
                                {
                                    "system": "urn:oid:1.2.840.114350.1.13.0.1.7.10.698084.130.657370.19999000",
                                    "code": "male",
                                    "display": "male"
                                }
                            ]
                        },
                        "url": "http://open.epic.com/FHIR/StructureDefinition/extension/sex-for-clinical-use"
                    },
                    {
                        "valueCode": "M",
                        "url": "http://hl7.org/fhir/us/core/StructureDefinition/us-core-birthsex"
                    }
                ],
                "identifier": [
                    {
                        "use": "usual",
                        "system": "urn:oid:2.16.840.1.113883.4.1",
                        "value": "859-41-3641"
                    },
                    {
                        "use": "usual",
                        "type": {
                            "text": "CEID"
                        },
                        "system": "urn:epic:apporchard.curprod",
                        "value": "AO1ND7S3CM9PF8X"
                    },
                    {
                        "use": "usual",
                        "type": {
                            "text": "EPIC"
                        },
                        "system": "urn:oid:1.2.840.114350.1.1",
                        "value": "E3506"
                    },
                    {
                        "use": "usual",
                        "type": {
                            "text": "EXTERNAL"
                        },
                        "system": "urn:oid:1.2.840.114350.1.13.0.1.7.2.698084",
                        "value": "Z5363"
                    },
                    {
                        "use": "usual",
                        "type": {
                            "text": "FHIR"
                        },
                        "system": "http://open.epic.com/FHIR/StructureDefinition/patient-dstu2-fhir-id",
                        "value": "TsoREHwneX13cNLLQBx30aZ8g.FnXqmgSfftMXXIxBkAB"
                    },
                    {
                        "use": "usual",
                        "type": {
                            "text": "FHIR STU3"
                        },
                        "system": "http://open.epic.com/FHIR/StructureDefinition/patient-fhir-id",
                        "value": "eAvIyaRRAycxAsRVIAKERKw3"
                    },
                    {
                        "use": "usual",
                        "type": {
                            "text": "INTERNAL"
                        },
                        "system": "urn:oid:1.2.840.114350.1.13.0.1.7.2.698084",
                        "value": "     Z5363"
                    },
                    {
                        "use": "usual",
                        "type": {
                            "text": "MRN"
                        },
                        "system": "urn:oid:1.2.840.114350.1.13.0.1.7.5.737384.14",
                        "value": "203261"
                    }
                ],
                "active": true,
                "name": [
                    {
                        "use": "official",
                        "text": "Patient R Zztransplant",
                        "family": "Zztransplant",
                        "given": [
                            "Patient",
                            "R"
                        ]
                    },
                    {
                        "use": "usual",
                        "text": "Patient R Zztransplant",
                        "family": "Zztransplant",
                        "given": [
                            "Patient",
                            "R"
                        ]
                    }
                ],
                "telecom": [
                    {
                        "system": "phone",
                        "value": "555-555-5555",
                        "use": "home"
                    },
                    {
                        "system": "phone",
                        "value": "555-555-5555",
                        "use": "work"
                    },
                    {
                        "system": "phone",
                        "value": "555-555-5555",
                        "use": "mobile"
                    }
                ],
                "gender": "male",
                "birthDate": "1977-06-06",
                "deceasedBoolean": false,
                "address": [
                    {
                        "use": "home",
                        "line": [
                            "1060 West Addison"
                        ],
                        "city": "Chicago",
                        "state": "IL",
                        "postalCode": "60613",
                        "country": "US"
                    }
                ],
                "maritalStatus": {
                    "text": "Single"
                },
                "contact": [
                    {
                        "relationship": [
                            {
                                "coding": [
                                    {
                                        "system": "http://terminology.hl7.org/CodeSystem/v2-0131",
                                        "code": "C",
                                        "display": "Emergency Contact"
                                    },
                                    {
                                        "system": "http://terminology.hl7.org/CodeSystem/v2-0131",
                                        "code": "N",
                                        "display": "Next-of-Kin"
                                    },
                                    {
                                        "system": "urn:oid:1.2.840.114350.1.13.0.1.7.4.827665.1000",
                                        "code": "3",
                                        "display": "Father"
                                    }
                                ],
                                "text": "Father"
                            }
                        ],
                        "name": {
                            "use": "usual",
                            "text": "Evore,Herb"
                        },
                        "telecom": [
                            {
                                "system": "phone",
                                "value": "555-555-5555",
                                "use": "home"
                            }
                        ],
                        "address": {
                            "use": "home",
                            "line": [
                                "1060 West Addison"
                            ],
                            "city": "Chicago",
                            "state": "IL",
                            "postalCode": "60613",
                            "country": "US"
                        }
                    }
                ],
                "communication": [
                    {
                        "language": {
                            "coding": [
                                {
                                    "system": "urn:ietf:bcp:47",
                                    "code": "en",
                                    "display": "English"
                                }
                            ],
                            "text": "English"
                        },
                        "preferred": true
                    }
                ],
                "managingOrganization": {
                    "reference": "Organization/enRyWnSP963FYDpoks4NHOA3",
                    "display": "Epic Hospital System"
                }
            },
            "search": {
                "mode": "include"
            }
        },
        {
            "link": [
                {
                    "relation": "self",
                    "url": "https://appmarket.epic.com/interconnect-amcurprd-oauth/api/FHIR/R4/Medication/ehLfCobv49VFaQ93CpZLCWqN3sGgopKxrmiL9xTtRYiRKKWla0izHXPdwQXHkIMug3"
                }
            ],
            "fullUrl": "https://appmarket.epic.com/interconnect-amcurprd-oauth/api/FHIR/R4/Medication/ehLfCobv49VFaQ93CpZLCWqN3sGgopKxrmiL9xTtRYiRKKWla0izHXPdwQXHkIMug3",
            "resource": {
                "resourceType": "Medication",
                "id": "ehLfCobv49VFaQ93CpZLCWqN3sGgopKxrmiL9xTtRYiRKKWla0izHXPdwQXHkIMug3",
                "code": {
                    "coding": [
                        {
                            "system": "urn:oid:2.16.840.1.113883.6.253",
                            "code": "92494"
                        },
                        {
                            "system": "urn:oid:2.16.840.1.113883.6.68",
                            "code": "44400033223230"
                        },
                        {
                            "system": "http://www.nlm.nih.gov/research/umls/rxnorm",
                            "code": "41126"
                        },
                        {
                            "system": "http://www.nlm.nih.gov/research/umls/rxnorm",
                            "code": "50121"
                        },
                        {
                            "system": "http://www.nlm.nih.gov/research/umls/rxnorm",
                            "code": "895999"
                        },
                        {
                            "system": "urn:oid:2.16.840.1.113883.6.162",
                            "code": "43858"
                        }
                    ],
                    "text": "fluticasone (FLOVENT HFA) inhaler 110 mcg/act"
                },
                "form": {
                    "coding": [
                        {
                            "system": "urn:oid:1.2.840.114350.1.13.0.1.7.4.698288.310",
                            "code": "AERO",
                            "display": "aerosol"
                        }
                    ],
                    "text": "aerosol"
                },
                "ingredient": [
                    {
                        "itemCodeableConcept": {
                            "coding": [
                                {
                                    "system": "urn:oid:2.16.840.1.113883.6.253",
                                    "code": "92494"
                                },
                                {
                                    "system": "urn:oid:2.16.840.1.113883.6.68",
                                    "code": "44400033223230"
                                },
                                {
                                    "system": "http://www.nlm.nih.gov/research/umls/rxnorm",
                                    "code": "41126"
                                },
                                {
                                    "system": "http://www.nlm.nih.gov/research/umls/rxnorm",
                                    "code": "50121"
                                },
                                {
                                    "system": "http://www.nlm.nih.gov/research/umls/rxnorm",
                                    "code": "895999"
                                },
                                {
                                    "system": "urn:oid:2.16.840.1.113883.6.162",
                                    "code": "43858"
                                }
                            ],
                            "text": "fluticasone (FLOVENT HFA) inhaler 110 mcg/act"
                        },
                        "strength": {
                            "numerator": {
                                "value": 110,
                                "unit": "MCG/ACT"
                            },
                            "denominator": {
                                "value": 110,
                                "unit": "MCG/ACT"
                            }
                        }
                    }
                ]
            },
            "search": {
                "mode": "include"
            }
        },
        {
            "link": [
                {
                    "relation": "self",
                    "url": "https://appmarket.epic.com/interconnect-amcurprd-oauth/api/FHIR/R4/Medication/ehLfCobv49VFaQ93CpZLCWtdb6vhLddt.bqc-SptA2k0aUoYQfTMJUxMZJ6vs3.n53"
                }
            ],
            "fullUrl": "https://appmarket.epic.com/interconnect-amcurprd-oauth/api/FHIR/R4/Medication/ehLfCobv49VFaQ93CpZLCWtdb6vhLddt.bqc-SptA2k0aUoYQfTMJUxMZJ6vs3.n53",
            "resource": {
                "resourceType": "Medication",
                "id": "ehLfCobv49VFaQ93CpZLCWtdb6vhLddt.bqc-SptA2k0aUoYQfTMJUxMZJ6vs3.n53",
                "code": {
                    "coding": [
                        {
                            "system": "urn:oid:2.16.840.1.113883.6.253",
                            "code": "92494"
                        },
                        {
                            "system": "urn:oid:2.16.840.1.113883.6.68",
                            "code": "44400033223230"
                        },
                        {
                            "system": "http://www.nlm.nih.gov/research/umls/rxnorm",
                            "code": "41126"
                        },
                        {
                            "system": "http://www.nlm.nih.gov/research/umls/rxnorm",
                            "code": "50121"
                        },
                        {
                            "system": "http://www.nlm.nih.gov/research/umls/rxnorm",
                            "code": "895999"
                        },
                        {
                            "system": "urn:oid:2.16.840.1.113883.6.162",
                            "code": "43858"
                        }
                    ],
                    "text": "fluticasone (FLOVENT HFA) inhaler 110 mcg/act"
                },
                "form": {
                    "coding": [
                        {
                            "system": "urn:oid:1.2.840.114350.1.13.0.1.7.4.698288.310",
                            "code": "AERO",
                            "display": "aerosol"
                        }
                    ],
                    "text": "aerosol"
                },
                "ingredient": [
                    {
                        "itemCodeableConcept": {
                            "coding": [
                                {
                                    "system": "urn:oid:2.16.840.1.113883.6.253",
                                    "code": "92494"
                                },
                                {
                                    "system": "urn:oid:2.16.840.1.113883.6.68",
                                    "code": "44400033223230"
                                },
                                {
                                    "system": "http://www.nlm.nih.gov/research/umls/rxnorm",
                                    "code": "41126"
                                },
                                {
                                    "system": "http://www.nlm.nih.gov/research/umls/rxnorm",
                                    "code": "50121"
                                },
                                {
                                    "system": "http://www.nlm.nih.gov/research/umls/rxnorm",
                                    "code": "895999"
                                },
                                {
                                    "system": "urn:oid:2.16.840.1.113883.6.162",
                                    "code": "43858"
                                }
                            ],
                            "text": "fluticasone (FLOVENT HFA) inhaler 110 mcg/act"
                        },
                        "strength": {
                            "numerator": {
                                "value": 110,
                                "unit": "MCG/ACT"
                            },
                            "denominator": {
                                "value": 110,
                                "unit": "MCG/ACT"
                            }
                        }
                    }
                ]
            },
            "search": {
                "mode": "include"
            }
        },
        {
            "link": [
                {
                    "relation": "self",
                    "url": "https://appmarket.epic.com/interconnect-amcurprd-oauth/api/FHIR/R4/Medication/evDZhLVSmu6BHFwLwgMHKYB.ciLxf-R.xf31muf8qYFxI0jecjFDPSnGVM9gLZq033"
                }
            ],
            "fullUrl": "https://appmarket.epic.com/interconnect-amcurprd-oauth/api/FHIR/R4/Medication/evDZhLVSmu6BHFwLwgMHKYB.ciLxf-R.xf31muf8qYFxI0jecjFDPSnGVM9gLZq033",
            "resource": {
                "resourceType": "Medication",
                "id": "evDZhLVSmu6BHFwLwgMHKYB.ciLxf-R.xf31muf8qYFxI0jecjFDPSnGVM9gLZq033",
                "code": {
                    "coding": [
                        {
                            "system": "urn:oid:2.16.840.1.113883.6.253",
                            "code": "33077"
                        },
                        {
                            "system": "urn:oid:2.16.840.1.113883.6.68",
                            "code": "45304020002010"
                        },
                        {
                            "system": "http://www.nlm.nih.gov/research/umls/rxnorm",
                            "code": "310014"
                        },
                        {
                            "system": "http://www.nlm.nih.gov/research/umls/rxnorm",
                            "code": "337623"
                        },
                        {
                            "system": "urn:oid:2.16.840.1.113883.6.162",
                            "code": "10617"
                        }
                    ],
                    "text": "dornase alpha (PULMOZYME) nebulizer solution 1 mg/mL"
                },
                "form": {
                    "coding": [
                        {
                            "system": "urn:oid:1.2.840.114350.1.13.0.1.7.4.698288.310",
                            "code": "SOLN",
                            "display": "solution"
                        }
                    ],
                    "text": "solution"
                },
                "ingredient": [
                    {
                        "itemCodeableConcept": {
                            "coding": [
                                {
                                    "system": "urn:oid:2.16.840.1.113883.6.253",
                                    "code": "33077"
                                },
                                {
                                    "system": "urn:oid:2.16.840.1.113883.6.68",
                                    "code": "45304020002010"
                                },
                                {
                                    "system": "http://www.nlm.nih.gov/research/umls/rxnorm",
                                    "code": "310014"
                                },
                                {
                                    "system": "http://www.nlm.nih.gov/research/umls/rxnorm",
                                    "code": "337623"
                                },
                                {
                                    "system": "urn:oid:2.16.840.1.113883.6.162",
                                    "code": "10617"
                                }
                            ],
                            "text": "dornase alpha (PULMOZYME) nebulizer solution 1 mg/mL"
                        },
                        "strength": {
                            "numerator": {
                                "value": 1,
                                "unit": "MG/ML",
                                "system": "http://unitsofmeasure.org",
                                "code": "mg/mL"
                            },
                            "denominator": {
                                "value": 1,
                                "unit": "MG/ML",
                                "system": "http://unitsofmeasure.org",
                                "code": "mg/mL"
                            }
                        }
                    }
                ]
            },
            "search": {
                "mode": "include"
            }
        },
        {
            "link": [
                {
                    "relation": "self",
                    "url": "https://appmarket.epic.com/interconnect-amcurprd-oauth/api/FHIR/R4/Medication/evDZhLVSmu6BHFwLwgMHKYKQqsnOqX07inqJAHGEy4CrXeiUMERg5YPRL5QLfJV5c3"
                }
            ],
            "fullUrl": "https://appmarket.epic.com/interconnect-amcurprd-oauth/api/FHIR/R4/Medication/evDZhLVSmu6BHFwLwgMHKYKQqsnOqX07inqJAHGEy4CrXeiUMERg5YPRL5QLfJV5c3",
            "resource": {
                "resourceType": "Medication",
                "id": "evDZhLVSmu6BHFwLwgMHKYKQqsnOqX07inqJAHGEy4CrXeiUMERg5YPRL5QLfJV5c3",
                "code": {
                    "coding": [
                        {
                            "system": "urn:oid:2.16.840.1.113883.6.253",
                            "code": "33077"
                        },
                        {
                            "system": "urn:oid:2.16.840.1.113883.6.68",
                            "code": "45304020002010"
                        },
                        {
                            "system": "http://www.nlm.nih.gov/research/umls/rxnorm",
                            "code": "310014"
                        },
                        {
                            "system": "http://www.nlm.nih.gov/research/umls/rxnorm",
                            "code": "337623"
                        },
                        {
                            "system": "urn:oid:2.16.840.1.113883.6.162",
                            "code": "10617"
                        }
                    ],
                    "text": "dornase alpha (PULMOZYME) nebulizer solution 1 mg/mL"
                },
                "form": {
                    "coding": [
                        {
                            "system": "urn:oid:1.2.840.114350.1.13.0.1.7.4.698288.310",
                            "code": "SOLN",
                            "display": "solution"
                        }
                    ],
                    "text": "solution"
                },
                "ingredient": [
                    {
                        "itemCodeableConcept": {
                            "coding": [
                                {
                                    "system": "urn:oid:2.16.840.1.113883.6.253",
                                    "code": "33077"
                                },
                                {
                                    "system": "urn:oid:2.16.840.1.113883.6.68",
                                    "code": "45304020002010"
                                },
                                {
                                    "system": "http://www.nlm.nih.gov/research/umls/rxnorm",
                                    "code": "310014"
                                },
                                {
                                    "system": "http://www.nlm.nih.gov/research/umls/rxnorm",
                                    "code": "337623"
                                },
                                {
                                    "system": "urn:oid:2.16.840.1.113883.6.162",
                                    "code": "10617"
                                }
                            ],
                            "text": "dornase alpha (PULMOZYME) nebulizer solution 1 mg/mL"
                        },
                        "strength": {
                            "numerator": {
                                "value": 1,
                                "unit": "MG/ML",
                                "system": "http://unitsofmeasure.org",
                                "code": "mg/mL"
                            },
                            "denominator": {
                                "value": 1,
                                "unit": "MG/ML",
                                "system": "http://unitsofmeasure.org",
                                "code": "mg/mL"
                            }
                        }
                    }
                ]
            },
            "search": {
                "mode": "include"
            }
        },
        {
            "link": [
                {
                    "relation": "self",
                    "url": "https://appmarket.epic.com/interconnect-amcurprd-oauth/api/FHIR/R4/Medication/evDZhLVSmu6BHFwLwgMHKYNmHtLBZdfI1y32t17OAoJ3lGv0i16wodd2Re7t4mpUD3"
                }
            ],
            "fullUrl": "https://appmarket.epic.com/interconnect-amcurprd-oauth/api/FHIR/R4/Medication/evDZhLVSmu6BHFwLwgMHKYNmHtLBZdfI1y32t17OAoJ3lGv0i16wodd2Re7t4mpUD3",
            "resource": {
                "resourceType": "Medication",
                "id": "evDZhLVSmu6BHFwLwgMHKYNmHtLBZdfI1y32t17OAoJ3lGv0i16wodd2Re7t4mpUD3",
                "code": {
                    "coding": [
                        {
                            "system": "urn:oid:2.16.840.1.113883.6.253",
                            "code": "33077"
                        },
                        {
                            "system": "urn:oid:2.16.840.1.113883.6.68",
                            "code": "45304020002010"
                        },
                        {
                            "system": "http://www.nlm.nih.gov/research/umls/rxnorm",
                            "code": "310014"
                        },
                        {
                            "system": "http://www.nlm.nih.gov/research/umls/rxnorm",
                            "code": "337623"
                        },
                        {
                            "system": "urn:oid:2.16.840.1.113883.6.162",
                            "code": "10617"
                        }
                    ],
                    "text": "dornase alpha (PULMOZYME) nebulizer solution 1 mg/mL"
                },
                "form": {
                    "coding": [
                        {
                            "system": "urn:oid:1.2.840.114350.1.13.0.1.7.4.698288.310",
                            "code": "SOLN",
                            "display": "solution"
                        }
                    ],
                    "text": "solution"
                },
                "ingredient": [
                    {
                        "itemCodeableConcept": {
                            "coding": [
                                {
                                    "system": "urn:oid:2.16.840.1.113883.6.253",
                                    "code": "33077"
                                },
                                {
                                    "system": "urn:oid:2.16.840.1.113883.6.68",
                                    "code": "45304020002010"
                                },
                                {
                                    "system": "http://www.nlm.nih.gov/research/umls/rxnorm",
                                    "code": "310014"
                                },
                                {
                                    "system": "http://www.nlm.nih.gov/research/umls/rxnorm",
                                    "code": "337623"
                                },
                                {
                                    "system": "urn:oid:2.16.840.1.113883.6.162",
                                    "code": "10617"
                                }
                            ],
                            "text": "dornase alpha (PULMOZYME) nebulizer solution 1 mg/mL"
                        },
                        "strength": {
                            "numerator": {
                                "value": 1,
                                "unit": "MG/ML",
                                "system": "http://unitsofmeasure.org",
                                "code": "mg/mL"
                            },
                            "denominator": {
                                "value": 1,
                                "unit": "MG/ML",
                                "system": "http://unitsofmeasure.org",
                                "code": "mg/mL"
                            }
                        }
                    }
                ]
            },
            "search": {
                "mode": "include"
            }
        }
    ]
}