{
    "resourceType": "Bundle",
    "type": "searchset",
    "total": 6,
    "link": [
        {
            "relation": "self",
            "url": "https://appmarket.epic.com/interconnect-amcurprd-oauth/api/FHIR/R4/MedicationRequest?_include=MedicationRequest:medicationReference&_include=MedicationRequest:subject&_format=json&patient=eTRvLlC7.Vj5gFQ4cuolvpQ3"
        }
    ],
    "entry": [
        {
            "link": [
                {
                    "relation": "self",
                    "url": "https://appmarket.epic.com/interconnect-amcurprd-oauth/api/FHIR/R4/MedicationRequest/eJ.lbkPhJ5btL3F1V75JezA3"
                }
            ],
            "fullUrl": "https://appmarket.epic.com/interconnect-amcurprd-oauth/api/FHIR/R4/MedicationRequest/eJ.lbkPhJ5btL3F1V75JezA3",
            "resource": {
                "resourceType": "MedicationRequest",
                "id": "eJ.lbkPhJ5btL3F1V75JezA3",
                "identifier": [
                    {
                        "use": "usual",
                        "system": "urn:oid:1.2.840.114350.1.13.0.1.7.2.798268",
                        "value": "906112"
                    }
                ],
                "status": "stopped",
                "intent": "order",
                "category": [
                    {
                        "coding": [
                            {
                                "system": "http://terminology.hl7.org/CodeSystem/medicationrequest-category",
                                "code": "inpatient",
                                "display": "Inpatient"
                            }
                        ],
                        "text": "Inpatient"
                    }
                ],
                "medicationReference": {
                    "reference": "Medication/ebgkUWtKqUFa81PMANQO1I6NqkkbN8gxbZMdZr7KDW92-LFG08mZHkaTjziV39-Om3",
                    "display": "bupivacaine (MARCAINE) injection 0.5%"
                },
                "subject": {
                    "reference": "Patient/eTRvLlC7.Vj5gFQ4cuolvpQ3",
                    "display": "Optime, Casey"
                },
                "encounter": {
                    "reference": "Encounter/ezRdj88MMX9R0LYLcgh5XQg3",
                    "identifier": {
                        "use": "usual",
                        "system": "urn:oid:1.2.840.114350.1.13.0.1.7.3.698084.8",
                        "value": "15454"
                    },
                    "display": "Hospital Encounter"
                },
                "authoredOn": "2011-04-10T21:48:08Z",
                "requester": {
                    "reference": "Practitioner/eOyFJ.PiGBcbhr3T1oyJZ1A3",
                    "type": "Practitioner",
                    "display": "Physician Surgery, MD"
                },
                "recorder": {
                    "reference": "Practitioner/eUHWM5R81nV4SlA71j3Y7rA3",
                    "type": "Practitioner",
                    "display": "Circ Nurse Optime, RN"
                },
                "courseOfTherapyType": {
                    "coding": [
                        {
                            "system": "http://terminology.hl7.org/CodeSystem/medicationrequest-course-of-therapy",
                            "code": "acute",
                            "display": "Short course (acute) therapy"
                        }
                    ],
                    "text": "Short course (acute) therapy"
                },
                "dosageInstruction": [
                    {
                        "text": "As needed, Starting Sun 4/10/11 at 1647, Intra-op",
                        "timing": {
                            "repeat": {
                                "boundsPeriod": {
                                    "start": "2011-04-10T21:47:00Z",
                                    "end": "2011-04-10T21:53:35Z"
                                },
                                "frequency": 1,
                                "period": 1,
                                "periodUnit": "d"
                            },
                            "code": {
                                "text": "As needed"
                            }
                        },
                        "asNeededBoolean": true
                    }
                ]
            },
            "search": {
                "mode": "match"
            }
        },
        {
            "link": [
                {
                    "relation": "self",
                    "url": "https://appmarket.epic.com/interconnect-amcurprd-oauth/api/FHIR/R4/MedicationRequest/eOSmSV5SH.J7xZwIaT4fe.A3"
                }
            ],
            "fullUrl": "https://appmarket.epic.com/interconnect-amcurprd-oauth/api/FHIR/R4/MedicationRequest/eOSmSV5SH.J7xZwIaT4fe.A3",
            "resource": {
                "resourceType": "MedicationRequest",
                "id": "eOSmSV5SH.J7xZwIaT4fe.A3",
                "identifier": [
                    {
                        "use": "usual",
                        "system": "urn:oid:1.2.840.114350.1.13.0.1.7.2.798268",
                        "value": "906098"
                    }
                ],
                "status": "on-hold",
                "intent": "plan",
                "category": [
                    {
                        "coding": [
                            {
                                "system": "http://terminology.hl7.org/CodeSystem/medicationrequest-category",
                                "code": "community",
                                "display": "Community"
                            }
                        ],
                        "text": "Community"
                    }
                ],
                "reportedBoolean": true,
                "medicationReference": {
                    "reference": "Medication/ee7TuuQ8nCIwHPamSqua1F6Dub6hEJ6oWf1xxDDZeXQI0U90syZvR5h5ZBH48e6FB3",
                    "display": "ALPRAZolam (XANAX) tablet"
                },
                "subject": {
                    "reference": "Patient/eTRvLlC7.Vj5gFQ4cuolvpQ3",
                    "display": "Optime, Casey"
                },
                "encounter": {
                    "reference": "Encounter/e40WqpwV4HWANRyjpIrl.eQ3",
                    "identifier": {
                        "use": "usual",
                        "system": "urn:oid:1.2.840.114350.1.13.0.1.7.3.698084.8",
                        "value": "15448"
                    },
                    "display": "Hospital Encounter"
                },
                "authoredOn": "2011-04-10T18:23:16Z",
                "requester": {
                    "extension": [
                        {
                            "valueCode": "unknown",
                            "url": "http://hl7.org/fhir/StructureDefinition/data-absent-reason"
                        }
                    ]
                },
                "recorder": {
                    "reference": "Practitioner/e7NvHbT1yipP-LcFkHyGq0g3",
                    "type": "Practitioner",
                    "display": "Pre-Procedure Nurse Optime, RN"
                },
                "courseOfTherapyType": {
                    "coding": [
                        {
                            "system": "http://terminology.hl7.org/CodeSystem/medicationrequest-course-of-therapy",
                            "code": "acute",
                            "display": "Short course (acute) therapy"
                        }
                    ],
                    "text": "Short course (acute) therapy"
                },
                "dosageInstruction": [
                    {
                        "text": "Take 0.25 mg by mouth nightly as needed.  , Until Discontinued, Historical Med",
                        "patientInstruction": "Take 0.25 mg by mouth nightly as needed.  ",
                        "timing": {
                            "repeat": {
                                "frequency": 1,
                                "period": 1,
                                "periodUnit": "d"
                            },
                            "code": {
                                "text": "Nightly as needed"
                            }
                        },
                        "asNeededBoolean": true,
                        "route": {
                            "coding": [
                                {
                                    "system": "http://snomed.info/sct",
                                    "code": "260548002",
                                    "display": "Oral (qualifier value)"
                                },
                                {
                                    "system": "urn:oid:1.2.840.114350.1.13.0.1.7.4.798268.7025",
                                    "code": "15",
                                    "display": "Oral"
                                }
                            ],
                            "text": "Oral"
                        },
                        "doseAndRate": [
                            {
                                "type": {
                                    "coding": [
                                        {
                                            "system": "http://epic.com/CodeSystem/dose-rate-type",
                                            "code": "ordered",
                                            "display": "ordered"
                                        }
                                    ],
                                    "text": "ordered"
                                },
                                "doseQuantity": {
                                    "value": 0.25,
                                    "unit": "mg",
                                    "system": "http://unitsofmeasure.org",
                                    "code": "mg"
                                }
                            }
                        ]
                    }
                ]
            },
            "search": {
                "mode": "match"
            }
        },
        {
            "link": [
                {
                    "relation": "self",
                    "url": "https://appmarket.epic.com/interconnect-amcurprd-oauth/api/FHIR/R4/MedicationRequest/eP1sjus1T7Nan-GTfD4uLQw3"
                }
            ],
            "fullUrl": "https://appmarket.epic.com/interconnect-amcurprd-oauth/api/FHIR/R4/MedicationRequest/eP1sjus1T7Nan-GTfD4uLQw3",
            "resource": {
                "resourceType": "MedicationRequest",
                "id": "eP1sjus1T7Nan-GTfD4uLQw3",
                "identifier": [
                    {
                        "use": "usual",
                        "system": "urn:oid:1.2.840.114350.1.13.0.1.7.2.798268",
                        "value": "906101"
                    }
                ],
                "status": "stopped",
                "intent": "order",
                "category": [
                    {
                        "coding": [
                            {
                                "system": "http://terminology.hl7.org/CodeSystem/medicationrequest-category",
                                "code": "outpatient",
                                "display": "Outpatient"
                            }
                        ],
                        "text": "Outpatient"
                    }
                ],
                "medicationReference": {
                    "reference": "Medication/e.IZlEDKZ-g4tmlTgs2a0WDBsVKLNDdxKfikXps4LnPRieRUd6SBYkyoWqjvfnK9Z3",
                    "display": "fentaNYL (SUBLIMAZE) injection"
                },
                "subject": {
                    "reference": "Patient/eTRvLlC7.Vj5gFQ4cuolvpQ3",
                    "display": "Optime, Casey"
                },
                "encounter": {
                    "extension": [
                        {
                            "valueIdentifier": {
                                "use": "usual",
                                "system": "urn:oid:1.2.840.114350.1.13.0.1.7.3.698084.8",
                                "value": "15444"
                            },
                            "url": "http://open.epic.com/FHIR/StructureDefinition/extension/ce-encounter-id"
                        }
                    ],
                    "identifier": {
                        "use": "usual",
                        "system": "urn:oid:1.2.840.114350.1.13.0.1.7.3.698084.8",
                        "value": "15443"
                    },
                    "display": "Anesthesia"
                },
                "authoredOn": "2011-04-10T18:45:04Z",
                "requester": {
                    "reference": "Practitioner/enHmcmrIOygs4mq-t6soebQ3",
                    "type": "Practitioner",
                    "display": "Anesthesiologist Anesthesia, MD"
                },
                "recorder": {
                    "reference": "Practitioner/enHmcmrIOygs4mq-t6soebQ3",
                    "type": "Practitioner",
                    "display": "Anesthesiologist Anesthesia, MD"
                },
                "courseOfTherapyType": {
                    "coding": [
                        {
                            "system": "http://terminology.hl7.org/CodeSystem/medicationrequest-course-of-therapy",
                            "code": "acute",
                            "display": "Short course (acute) therapy"
                        }
                    ],
                    "text": "Short course (acute) therapy"
                },
                "dosageInstruction": [
                    {
                        "text": "Intravenous, As needed, other, Starting Sun 4/10/11 at 1344, Anesthesia Intra-op",
                        "timing": {
                            "repeat": {
                                "boundsPeriod": {
                                    "start": "2011-04-10T18:44:00Z",
                                    "end": "2011-04-25T14:48:44Z"
                                },
                                "frequency": 1,
                                "period": 1,
                                "periodUnit": "d"
                            },
                            "code": {
                                "text": "As needed"
                            }
                        },
                        "asNeededBoolean": true,
                        "route": {
                            "coding": [
                                {
                                    "system": "http://snomed.info/sct",
                                    "code": "418114005",
                                    "display": "Intravenous central route (qualifier value)"
                                },
                                {
                                    "system": "urn:oid:1.2.840.114350.1.13.0.1.7.4.798268.7025",
                                    "code": "11",
                                    "display": "Intravenous"
                                }
                            ],
                            "text": "Intravenous"
                        }
                    }
                ]
            },
            "search": {
                "mode": "match"
            }
        },
        {
            "link": [
                {
                    "relation": "self",
                    "url": "https://appmarket.epic.com/interconnect-amcurprd-oauth/api/FHIR/R4/MedicationRequest/eVP9GazDIF9DTGh00rzVHOg3"
                }
            ],
            "fullUrl": "https://appmarket.epic.com/interconnect-amcurprd-oauth/api/FHIR/R4/MedicationRequest/eVP9GazDIF9DTGh00rzVHOg3",
            "resource": {
                "resourceType": "MedicationRequest",
                "id": "eVP9GazDIF9DTGh00rzVHOg3",
                "identifier": [
                    {
                        "use": "usual",
                        "system": "urn:oid:1.2.840.114350.1.13.0.1.7.2.798268",
                        "value": "906100"
                    }
                ],
                "status": "stopped",
                "intent": "order",
                "category": [
                    {
                        "coding": [
                            {
                                "system": "http://terminology.hl7.org/CodeSystem/medicationrequest-category",
                                "code": "inpatient",
                                "display": "Inpatient"
                            }
                        ],
                        "text": "Inpatient"
                    }
                ],
                "medicationReference": {
                    "reference": "Medication/eXhfdm7Saef5s8kXwOKLbfgg.A.zsSOusj7vNZfURKA2c1p1-jg6li.9egp5eW8rL3",
                    "display": "ceFAZolin (ANCEF) vial 1 g"
                },
                "subject": {
                    "reference": "Patient/eTRvLlC7.Vj5gFQ4cuolvpQ3",
                    "display": "Optime, Casey"
                },
                "encounter": {
                    "reference": "Encounter/ezRdj88MMX9R0LYLcgh5XQg3",
                    "identifier": {
                        "use": "usual",
                        "system": "urn:oid:1.2.840.114350.1.13.0.1.7.3.698084.8",
                        "value": "15454"
                    },
                    "display": "Hospital Encounter"
                },
                "authoredOn": "2011-04-10T18:34:29Z",
                "requester": {
                    "reference": "Practitioner/eOyFJ.PiGBcbhr3T1oyJZ1A3",
                    "type": "Practitioner",
                    "display": "Physician Surgery, MD"
                },
                "recorder": {
                    "reference": "Practitioner/eUHWM5R81nV4SlA71j3Y7rA3",
                    "type": "Practitioner",
                    "display": "Circ Nurse Optime, RN"
                },
                "courseOfTherapyType": {
                    "coding": [
                        {
                            "system": "http://terminology.hl7.org/CodeSystem/medicationrequest-course-of-therapy",
                            "code": "acute",
                            "display": "Short course (acute) therapy"
                        }
                    ],
                    "text": "Short course (acute) therapy"
                },
                "dosageInstruction": [
                    {
                        "text": "As needed, Starting Sun 4/10/11 at 1334, Intra-op",
                        "timing": {
                            "repeat": {
                                "boundsPeriod": {
                                    "start": "2011-04-10T18:34:00Z",
                                    "end": "2011-04-10T18:38:08Z"
                                },
                                "frequency": 1,
                                "period": 1,
                                "periodUnit": "d"
                            },
                            "code": {
                                "text": "As needed"
                            }
                        },
                        "asNeededBoolean": true
                    }
                ]
            },
            "search": {
                "mode": "match"
            }
        },
        {
            "link": [
                {
                    "relation": "self",
                    "url": "https://appmarket.epic.com/interconnect-amcurprd-oauth/api/FHIR/R4/MedicationRequest/ecZ2Nr2bgZWfO4eeAico2Vw3"
                }
            ],
            "fullUrl": "https://appmarket.epic.com/interconnect-amcurprd-oauth/api/FHIR/R4/MedicationRequest/ecZ2Nr2bgZWfO4eeAico2Vw3",
            "resource": {
                "resourceType": "MedicationRequest",
                "id": "ecZ2Nr2bgZWfO4eeAico2Vw3",
                "identifier": [
                    {
                        "use": "usual",
                        "system": "urn:oid:1.2.840.114350.1.13.0.1.7.2.798268",
                        "value": "906113"
                    }
                ],
                "status": "stopped",
                "intent": "order",
                "category": [
                    {
                        "coding": [
                            {
                                "system": "http://terminology.hl7.org/CodeSystem/medicationrequest-category",
                                "code": "inpatient",
                                "display": "Inpatient"
                            }
                        ],
                        "text": "Inpatient"
                    }
                ],
                "medicationReference": {
                    "reference": "Medication/eqqOnYRQjKbdm4rltcYFMpYKuG05ihys.KTF-mBcuhO9luPZGG5qisufOSBQ9RSgc3",
                    "display": "ceFAZolin (ANCEF) IVPB 1 g in 50 mL (premix)"
                },
                "subject": {
                    "reference": "Patient/eTRvLlC7.Vj5gFQ4cuolvpQ3",
                    "display": "Optime, Casey"
                },
                "encounter": {
                    "reference": "Encounter/e8n7lRkWXFWujxnwnN8y6fw3",
                    "identifier": {
                        "use": "usual",
                        "system": "urn:oid:1.2.840.114350.1.13.0.1.7.3.698084.8",
                        "value": "15451"
                    },
                    "display": "Hospital Encounter"
                },
                "authoredOn": "2011-04-13T03:02:53Z",
                "requester": {
                    "reference": "Practitioner/eOyFJ.PiGBcbhr3T1oyJZ1A3",
                    "type": "Practitioner",
                    "display": "Physician Surgery, MD"
                },
                "recorder": {
                    "reference": "Practitioner/eUHWM5R81nV4SlA71j3Y7rA3",
                    "type": "Practitioner",
                    "display": "Circ Nurse Optime, RN"
                },
                "courseOfTherapyType": {
                    "coding": [
                        {
                            "system": "http://terminology.hl7.org/CodeSystem/medicationrequest-course-of-therapy",
                            "code": "acute",
                            "display": "Short course (acute) therapy"
                        }
                    ],
                    "text": "Short course (acute) therapy"
                },
                "dosageInstruction": [
                    {
                        "text": "for 30 Minutes, As needed, Starting Tue 4/12/11 at 2202, Intra-op",
                        "timing": {
                            "repeat": {
                                "boundsPeriod": {
                                    "start": "2011-04-13T03:02:00Z",
                                    "end": "2011-04-13T03:08:00Z"
                                },
                                "duration": 30,
                                "durationUnit": "min",
                                "frequency": 1,
                                "period": 1,
                                "periodUnit": "d"
                            },
                            "code": {
                                "text": "As needed"
                            }
                        },
                        "asNeededBoolean": true
                    }
                ]
            },
            "search": {
                "mode": "match"
            }
        },
        {
            "link": [
                {
                    "relation": "self",
                    "url": "https://appmarket.epic.com/interconnect-amcurprd-oauth/api/FHIR/R4/MedicationRequest/eq5wXVHRXB5GKAIw2e2-Dmw3"
                }
            ],
            "fullUrl": "https://appmarket.epic.com/interconnect-amcurprd-oauth/api/FHIR/R4/MedicationRequest/eq5wXVHRXB5GKAIw2e2-Dmw3",
            "resource": {
                "resourceType": "MedicationRequest",
                "id": "eq5wXVHRXB5GKAIw2e2-Dmw3",
                "identifier": [
                    {
                        "use": "usual",
                        "system": "urn:oid:1.2.840.114350.1.13.0.1.7.2.798268",
                        "value": "906099"
                    }
                ],
                "status": "on-hold",
                "intent": "plan",
                "category": [
                    {
                        "coding": [
                            {
                                "system": "http://terminology.hl7.org/CodeSystem/medicationrequest-category",
                                "code": "community",
                                "display": "Community"
                            }
                        ],
                        "text": "Community"
                    }
                ],
                "reportedBoolean": true,
                "medicationReference": {
                    "reference": "Medication/eopwiHwLo3HBxoR68auv.zg0wcPozrC5nahTdAcyJpR9yCjYMmYoNshi1WJ4ZZzQx3",
                    "display": "metFORMIN (GLUCOPHAGE-XR) 24 hr tablet"
                },
                "subject": {
                    "reference": "Patient/eTRvLlC7.Vj5gFQ4cuolvpQ3",
                    "display": "Optime, Casey"
                },
                "encounter": {
                    "reference": "Encounter/e40WqpwV4HWANRyjpIrl.eQ3",
                    "identifier": {
                        "use": "usual",
                        "system": "urn:oid:1.2.840.114350.1.13.0.1.7.3.698084.8",
                        "value": "15448"
                    },
                    "display": "Hospital Encounter"
                },
                "authoredOn": "2011-04-10T18:23:16Z",
                "requester": {
                    "extension": [
                        {
                            "valueCode": "unknown",
                            "url": "http://hl7.org/fhir/StructureDefinition/data-absent-reason"
                        }
                    ]
                },
                "recorder": {
                    "reference": "Practitioner/e7NvHbT1yipP-LcFkHyGq0g3",
                    "type": "Practitioner",
                    "display": "Pre-Procedure Nurse Optime, RN"
                },
                "courseOfTherapyType": {
                    "coding": [
                        {
                            "system": "http://terminology.hl7.org/CodeSystem/medicationrequest-course-of-therapy",
                            "code": "acute",
                            "display": "Short course (acute) therapy"
                        }
                    ],
                    "text": "Short course (acute) therapy"
                },
                "dosageInstruction": [
                    {
                        "text": "Take 500 mg by mouth daily with breakfast.  , Until Discontinued, Historical Med",
                        "patientInstruction": "Take 500 mg by mouth daily with breakfast.  ",
                        "timing": {
                            "repeat": {
                                "timeOfDay": [
                                    "08:00:00"
                                ]
                            },
                            "code": {
                                "text": "0800"
                            }
                        },
                        "asNeededBoolean": false,
                        "route": {
                            "coding": [
                                {
                                    "system": "http://snomed.info/sct",
                                    "code": "260548002",
                                    "display": "Oral (qualifier value)"
                                },
                                {
                                    "system": "urn:oid:1.2.840.114350.1.13.0.1.7.4.798268.7025",
                                    "code": "15",
                                    "display": "Oral"
                                }
                            ],
                            "text": "Oral"
                        },
                        "doseAndRate": [
                            {
                                "type": {
                                    "coding": [
                                        {
                                            "system": "http://epic.com/CodeSystem/dose-rate-type",
                                            "code": "ordered",
                                            "display": "ordered"
                                        }
                                    ],
                                    "text": "ordered"
                                },
                                "doseQuantity": {
                                    "value": 500,
                                    "unit": "mg",
                                    "system": "http://unitsofmeasure.org",
                                    "code": "mg"
                                }
                            }
                        ]
                    }
                ]
            },
            "search": {
                "mode": "match"
            }
        },
        {
            "link": [
                {
                    "relation": "self",
                    "url": "https://appmarket.epic.com/interconnect-amcurprd-oauth/api/FHIR/R4/Medication/e.IZlEDKZ-g4tmlTgs2a0WDBsVKLNDdxKfikXps4LnPRieRUd6SBYkyoWqjvfnK9Z3"
                }
            ],
            "fullUrl": "https://appmarket.epic.com/interconnect-amcurprd-oauth/api/FHIR/R4/Medication/e.IZlEDKZ-g4tmlTgs2a0WDBsVKLNDdxKfikXps4LnPRieRUd6SBYkyoWqjvfnK9Z3",
            "resource": {
                "resourceType": "Medication",
                "id": "e.IZlEDKZ-g4tmlTgs2a0WDBsVKLNDdxKfikXps4LnPRieRUd6SBYkyoWqjvfnK9Z3",
                "code": {
                    "coding": [
                        {
                            "system": "urn:oid:2.16.840.1.113883.6.253",
                            "code": "8232"
                        },
                        {
                            "system": "urn:oid:2.16.840.1.113883.6.68",
                            "code": "65100025102005"
                        },
                        {
                            "system": "urn:oid:2.16.840.1.113883.6.162",
                            "code": "03549"
                        },
                        {
                            "system": "http://www.nlm.nih.gov/research/umls/rxnorm",
                            "code": "4337"
                        },
                        {
                            "system": "http://www.nlm.nih.gov/research/umls/rxnorm",
                            "code": "142436"
                        },
                        {
                            "system": "http://www.nlm.nih.gov/research/umls/rxnorm",
                            "code": "1735006"
                        },
                        {
                            "system": "http://www.nlm.nih.gov/research/umls/rxnorm",
                            "code": "1735007"
                        },
                        {
                            "system": "http://www.nlm.nih.gov/research/umls/rxnorm",
                            "code": "1735008"
                        }
                    ],
                    "text": "fentaNYL (SUBLIMAZE) injection"
                },
                "form": {
                    "coding": [
                        {
                            "system": "urn:oid:1.2.840.114350.1.13.0.1.7.4.698288.310",
                            "code": "SOLN",
                            "display": "solution"
                        }
                    ],
                    "text": "solution"
                },
                "ingredient": [
                    {
                        "itemCodeableConcept": {
                            "coding": [
                                {
                                    "system": "urn:oid:2.16.840.1.113883.6.253",
                                    "code": "8232"
                                },
                                {
                                    "system": "urn:oid:2.16.840.1.113883.6.68",
                                    "code": "65100025102005"
                                },
                                {
                                    "system": "urn:oid:2.16.840.1.113883.6.162",
                                    "code": "03549"
                                },
                                {
                                    "system": "http://www.nlm.nih.gov/research/umls/rxnorm",
                                    "code": "4337"
                                },
                                {
                                    "system": "http://www.nlm.nih.gov/research/umls/rxnorm",
                                    "code": "142436"
                                },
                                {
                                    "system": "http://www.nlm.nih.gov/research/umls/rxnorm",
                                    "code": "1735006"
                                },
                                {
                                    "system": "http://www.nlm.nih.gov/research/umls/rxnorm",
                                    "code": "1735007"
                                },
                                {
                                    "system": "http://www.nlm.nih.gov/research/umls/rxnorm",
                                    "code": "1735008"
                                }
                            ],
                            "text": "fentaNYL (SUBLIMAZE) injection"
                        },
                        "strength": {
                            "numerator": {
                                "value": 0.05,
                                "unit": "MG/ML",
                                "system": "http://unitsofmeasure.org",
                                "code": "mg/mL"
                            },
                            "denominator": {
                                "value": 0.05,
                                "unit": "MG/ML",
                                "system": "http://unitsofmeasure.org",
                                "code": "mg/mL"
                            }
                        }
                    }
                ]
            },
            "search": {
                "mode": "include"
            }
        },
        {
            "link": [
                {
                    "relation": "self",
                    "url": "https://appmarket.epic.com/interconnect-amcurprd-oauth/api/FHIR/R4/Patient/eTRvLlC7.Vj5gFQ4cuolvpQ3"
                }
            ],
            "fullUrl": "https://appmarket.epic.com/interconnect-amcurprd-oauth/api/FHIR/R4/Patient/eTRvLlC7.Vj5gFQ4cuolvpQ3",
            "resource": {
                "resourceType": "Patient",
                "id": "eTRvLlC7.Vj5gFQ4cuolvpQ3",
                "extension": [
                    {
                        "extension": [
                            {
                                "valueCoding": {
                                    "system": "urn:oid:2.16.840.1.113883.6.238",
                                    "code": "2028-9",
                                    "display": "Asian"
                                },
                                "url": "ombCategory"
                            },
                            {
                                "valueString": "Other Asian",
                                "url": "text"
                            }
                        ],
                        "url": "http://hl7.org/fhir/us/core/StructureDefinition/us-core-race"
                    },
                    {
                        "extension": [
                            {
                                "valueCoding": {
                                    "system": "urn:oid:2.16.840.1.113883.6.238",
                                    "code": "2186-5",
                                    "display": "Not Hispanic or Latino"
                                },
                                "url": "ombCategory"
                            },
                            {
                                "valueString": "Not Hispanic or Latino",
                                "url": "text"
                            }
                        ],
                        "url": "http://hl7.org/fhir/us/core/StructureDefinition/us-core-ethnicity"
                    },
                    {
                        "valueCodeableConcept": {
                            "coding": [
                                {
                                    "system": "urn:oid:1.2.840.114350.1.13.0.1.7.10.698084.130.657370.19999000",
                                    "code": "male",
                                    "display": "male"
                                }
                            ]
                        },
                        "url": "http://open.epic.com/FHIR/StructureDefinition/extension/legal-sex"
                    },
                    {
                        "valueCodeableConcept": {
                            "coding": [
                                {
                                    "system": "urn:oid:1.2.840.114350.1.13.0.1.7.10.698084.130.657370.19999000",
                                    "code": "male",
                                    "display": "male"
                                }
                            ]
                        },
                        "url": "http://open.epic.com/FHIR/StructureDefinition/extension/sex-for-clinical-use"
                    },
                    {
                        "valueCode": "M",
                        "url": "http://hl7.org/fhir/us/core/StructureDefinition/us-core-birthsex"
                    }
                ],
                "identifier": [
                    {
                        "use": "usual",
                        "system": "urn:oid:2.16.840.1.113883.4.1",
                        "value": "586-72-9659"
                    },
                    {
                        "use": "usual",
                        "type": {
                            "text": "CEID"
                        },
                        "system": "urn:epic:apporchard.curprod",
                        "value": "AO175924JBSBPDK"
                    },
                    {
                        "use": "usual",
                        "type": {
                            "text": "EPIC"
                        },
                        "system": "urn:oid:1.2.840.114350.1.1",
                        "value": "E1514"
                    },
                    {
                        "use": "usual",
                        "type": {
                            "text": "EXTERNAL"
                        },
                        "system": "urn:oid:1.2.840.114350.1.13.0.1.7.2.698084",
                        "value": "Z5331"
                    },
                    {
                        "use": "usual",
                        "type": {
                            "text": "FHIR"
                        },
                        "system": "http://open.epic.com/FHIR/StructureDefinition/patient-dstu2-fhir-id",
                        "value": "TfgteVEE4KXPTG-gnRIkA006b6UMCkr4UNGBsNp16agQB"
                    },
                    {
                        "use": "usual",
                        "type": {
                            "text": "FHIR STU3"
                        },
                        "system": "http://open.epic.com/FHIR/StructureDefinition/patient-fhir-id",
                        "value": "eTRvLlC7.Vj5gFQ4cuolvpQ3"
                    },
                    {
                        "use": "usual",
                        "type": {
                            "text": "INTERNAL"
                        },
                        "system": "urn:oid:1.2.840.114350.1.13.0.1.7.2.698084",
                        "value": "     Z5331"
                    },
                    {
                        "use": "usual",
                        "type": {
                            "text": "MRN"
                        },
                        "system": "urn:oid:1.2.840.114350.1.13.0.1.7.5.737384.14",
                        "value": "201308"
                    }
                ],
                "active": true,
                "name": [
                    {
                        "use": "official",
                        "text": "Casey Optime",
                        "family": "Optime",
                        "given": [
                            "Casey"
                        ]
                    },
                    {
                        "use": "usual",
                        "text": "Casey Optime",
                        "family": "Optime",
                        "given": [
                            "Casey"
                        ]
                    }
                ],
                "telecom": [
                    {
                        "system": "phone",
                        "value": "608-772-6543",
                        "use": "home"
                    }
                ],
                "gender": "male",
                "birthDate": "1980-07-29",
                "deceasedBoolean": false,
                "address": [
                    {
                        "use": "old",
                        "line": [
                            "2180 Vista Ridge Dr"
                        ],
                        "city": "Mt Horeb",
                        "state": "WI",
                        "postalCode": "53572",
                        "country": "US"
                    },
                    {
                        "use": "home",
                        "line": [
                            "2180 Vista Ridge Dr"
                        ],
                        "city": "Mt Horeb",
                        "state": "WI",
                        "postalCode": "53572",
                        "country": "US"
                    }
                ],
                "maritalStatus": {
                    "text": "Single"
                },
                "contact": [
                    {
                        "relationship": [
                            {
                                "coding": [
                                    {
                                        "system": "http://terminology.hl7.org/CodeSystem/v2-0131",
                                        "code": "U",
                                        "display": "Unknown"
                                    },
                                    {
                                        "system": "urn:oid:1.2.840.114350.1.13.0.1.7.4.827665.1000",
                                        "code": "18",
                                        "display": "Step Parent"
                                    }
                                ],
                                "text": "Step Parent"
                            }
                        ],
                        "name": {
                            "use": "usual",
                            "text": "Theodore A Goodwin"
                        },
                        "telecom": [
                            {
                                "system": "phone",
                                "value": "608-213-5806",
                                "use": "home"
                            }
                        ],
                        "address": {
                            "use": "home",
                            "line": [
                                "134 Elm Street"
                            ],
                            "city": "Madison",
                            "district": "DANE",
                            "state": "WI",
                            "postalCode": "53706",
                            "country": "US"
                        }
                    },
                    {
                        "relationship": [
                            {
                                "coding": [
                                    {
                                        "system": "http://terminology.hl7.org/CodeSystem/v2-0131",
                                        "code": "E",
                                        "display": "Employer"
                                    }
                                ]
                            }
                        ],
                        "telecom": [
                            {
                                "system": "phone",
                                "value": "608-271-9000",
                                "use": "work"
                            }
                        ],
                        "address": {
                            "use": "work",
                            "line": [
                                "1979 MILKY WAY"
                            ],
                            "city": "VERONA",
                            "district": "DANE",
                            "state": "WI",
                            "postalCode": "53593",
                            "country": "US"
                        },
                        "organization": {
                            "display": "Ehs Generic Employer"
                        }
                    }
                ],
                "generalPractitioner": [
                    {
                        "reference": "Practitioner/eM5CWtq15N0WJeuCet5bJlQ3",
                        "type": "Practitioner",
                        "display": "Physician Family Medicine, MD"
                    }
                ],
                "managingOrganization": {
                    "reference": "Organization/enRyWnSP963FYDpoks4NHOA3",
                    "display": "Epic Hospital System"
                }
            },
            "search": {
                "mode": "include"
            }
        },
        {
            "link": [
                {
                    "relation": "self",
                    "url": "https://appmarket.epic.com/interconnect-amcurprd-oauth/api/FHIR/R4/Medication/eXhfdm7Saef5s8kXwOKLbfgg.A.zsSOusj7vNZfURKA2c1p1-jg6li.9egp5eW8rL3"
                }
            ],
            "fullUrl": "https://appmarket.epic.com/interconnect-amcurprd-oauth/api/FHIR/R4/Medication/eXhfdm7Saef5s8kXwOKLbfgg.A.zsSOusj7vNZfURKA2c1p1-jg6li.9egp5eW8rL3",
            "resource": {
                "resourceType": "Medication",
                "id": "eXhfdm7Saef5s8kXwOKLbfgg.A.zsSOusj7vNZfURKA2c1p1-jg6li.9egp5eW8rL3",
                "code": {
                    "coding": [
                        {
                            "system": "urn:oid:2.16.840.1.113883.6.253",
                            "code": "64078"
                        },
                        {
                            "system": "urn:oid:2.16.840.1.113883.6.68",
                            "code": "02100015102117"
                        },
                        {
                            "system": "urn:oid:2.16.840.1.113883.6.162",
                            "code": "27505"
                        },
                        {
                            "system": "http://www.nlm.nih.gov/research/umls/rxnorm",
                            "code": "2180"
                        },
                        {
                            "system": "http://www.nlm.nih.gov/research/umls/rxnorm",
                            "code": "203171"
                        },
                        {
                            "system": "http://www.nlm.nih.gov/research/umls/rxnorm",
                            "code": "1665050"
                        }
                    ],
                    "text": "ceFAZolin (ANCEF) vial 1 g"
                },
                "form": {
                    "coding": [
                        {
                            "system": "urn:oid:1.2.840.114350.1.13.0.1.7.4.698288.310",
                            "code": "SOLR",
                            "display": "reconstituted solution"
                        }
                    ],
                    "text": "reconstituted solution"
                },
                "ingredient": [
                    {
                        "itemCodeableConcept": {
                            "coding": [
                                {
                                    "system": "urn:oid:2.16.840.1.113883.6.253",
                                    "code": "64078"
                                },
                                {
                                    "system": "urn:oid:2.16.840.1.113883.6.68",
                                    "code": "02100015102117"
                                },
                                {
                                    "system": "urn:oid:2.16.840.1.113883.6.162",
                                    "code": "27505"
                                },
                                {
                                    "system": "http://www.nlm.nih.gov/research/umls/rxnorm",
                                    "code": "2180"
                                },
                                {
                                    "system": "http://www.nlm.nih.gov/research/umls/rxnorm",
                                    "code": "203171"
                                },
                                {
                                    "system": "http://www.nlm.nih.gov/research/umls/rxnorm",
                                    "code": "1665050"
                                }
                            ],
                            "text": "ceFAZolin (ANCEF) vial 1 g"
                        },
                        "strength": {
                            "numerator": {
                                "value": 1,
                                "unit": "GM",
                                "system": "http://unitsofmeasure.org",
                                "code": "g"
                            },
                            "denominator": {
                                "value": 1,
                                "unit": "GM",
                                "system": "http://unitsofmeasure.org",
                                "code": "g"
                            }
                        }
                    }
                ]
            },
            "search": {
                "mode": "include"
            }
        },
        {
            "link": [
                {
                    "relation": "self",
                    "url": "https://appmarket.epic.com/interconnect-amcurprd-oauth/api/FHIR/R4/Medication/ebgkUWtKqUFa81PMANQO1I6NqkkbN8gxbZMdZr7KDW92-LFG08mZHkaTjziV39-Om3"
                }
            ],
            "fullUrl": "https://appmarket.epic.com/interconnect-amcurprd-oauth/api/FHIR/R4/Medication/ebgkUWtKqUFa81PMANQO1I6NqkkbN8gxbZMdZr7KDW92-LFG08mZHkaTjziV39-Om3",
            "resource": {
                "resourceType": "Medication",
                "id": "ebgkUWtKqUFa81PMANQO1I6NqkkbN8gxbZMdZr7KDW92-LFG08mZHkaTjziV39-Om3",
                "code": {
                    "coding": [
                        {
                            "system": "urn:oid:2.16.840.1.113883.6.253",
                            "code": "3499"
                        },
                        {
                            "system": "urn:oid:2.16.840.1.113883.6.68",
                            "code": "69100010102010"
                        },
                        {
                            "system": "urn:oid:2.16.840.1.113883.6.162",
                            "code": "03778"
                        },
                        {
                            "system": "http://www.nlm.nih.gov/research/umls/rxnorm",
                            "code": "1815"
                        },
                        {
                            "system": "http://www.nlm.nih.gov/research/umls/rxnorm",
                            "code": "267396"
                        },
                        {
                            "system": "http://www.nlm.nih.gov/research/umls/rxnorm",
                            "code": "1012404"
                        }
                    ],
                    "text": "bupivacaine (MARCAINE) injection 0.5%"
                },
                "form": {
                    "coding": [
                        {
                            "system": "urn:oid:1.2.840.114350.1.13.0.1.7.4.698288.310",
                            "code": "SOLN",
                            "display": "solution"
                        }
                    ],
                    "text": "solution"
                },
                "ingredient": [
                    {
                        "itemCodeableConcept": {
                            "coding": [
                                {
                                    "system": "urn:oid:2.16.840.1.113883.6.253",
                                    "code": "3499"
                                },
                                {
                                    "system": "urn:oid:2.16.840.1.113883.6.68",
                                    "code": "69100010102010"
                                },
                                {
                                    "system": "urn:oid:2.16.840.1.113883.6.162",
                                    "code": "03778"
                                },
                                {
                                    "system": "http://www.nlm.nih.gov/research/umls/rxnorm",
                                    "code": "1815"
                                },
                                {
                                    "system": "http://www.nlm.nih.gov/research/umls/rxnorm",
                                    "code": "267396"
                                },
                                {
                                    "system": "http://www.nlm.nih.gov/research/umls/rxnorm",
                                    "code": "1012404"
                                }
                            ],
                            "text": "bupivacaine (MARCAINE) injection 0.5%"
                        },
                        "strength": {
                            "numerator": {
                                "value": 0.5,
                                "unit": "%",
                                "system": "http://unitsofmeasure.org",
                                "code": "%"
                            },
                            "denominator": {
                                "value": 0.5,
                                "unit": "%",
                                "system": "http://unitsofmeasure.org",
                                "code": "%"
                            }
                        }
                    }
                ]
            },
            "search": {
                "mode": "include"
            }
        },
        {
            "link": [
                {
                    "relation": "self",
                    "url": "https://appmarket.epic.com/interconnect-amcurprd-oauth/api/FHIR/R4/Medication/ee7TuuQ8nCIwHPamSqua1F6Dub6hEJ6oWf1xxDDZeXQI0U90syZvR5h5ZBH48e6FB3"
                }
            ],
            "fullUrl": "https://appmarket.epic.com/interconnect-amcurprd-oauth/api/FHIR/R4/Medication/ee7TuuQ8nCIwHPamSqua1F6Dub6hEJ6oWf1xxDDZeXQI0U90syZvR5h5ZBH48e6FB3",
            "resource": {
                "resourceType": "Medication",
                "id": "ee7TuuQ8nCIwHPamSqua1F6Dub6hEJ6oWf1xxDDZeXQI0U90syZvR5h5ZBH48e6FB3",
                "code": {
                    "coding": [
                        {
                            "system": "urn:oid:2.16.840.1.113883.6.253",
                            "code": "913"
                        },
                        {
                            "system": "urn:oid:2.16.840.1.113883.6.68",
                            "code": "57100010000305"
                        },
                        {
                            "system": "urn:oid:2.16.840.1.113883.6.162",
                            "code": "02954"
                        },
                        {
                            "system": "http://www.nlm.nih.gov/research/umls/rxnorm",
                            "code": "596"
                        },
                        {
                            "system": "http://www.nlm.nih.gov/research/umls/rxnorm",
                            "code": "308047"
                        }
                    ],
                    "text": "ALPRAZolam (XANAX) tablet"
                },
                "form": {
                    "coding": [
                        {
                            "system": "urn:oid:1.2.840.114350.1.13.0.1.7.4.698288.310",
                            "code": "TABS",
                            "display": "tablet"
                        }
                    ],
                    "text": "tablet"
                },
                "ingredient": [
                    {
                        "itemCodeableConcept": {
                            "coding": [
                                {
                                    "system": "urn:oid:2.16.840.1.113883.6.253",
                                    "code": "913"
                                },
                                {
                                    "system": "urn:oid:2.16.840.1.113883.6.68",
                                    "code": "57100010000305"
                                },
                                {
                                    "system": "urn:oid:2.16.840.1.113883.6.162",
                                    "code": "02954"
                                },
                                {
                                    "system": "http://www.nlm.nih.gov/research/umls/rxnorm",
                                    "code": "596"
                                },
                                {
                                    "system": "http://www.nlm.nih.gov/research/umls/rxnorm",
                                    "code": "308047"
                                }
                            ],
                            "text": "ALPRAZolam (XANAX) tablet"
                        },
                        "strength": {
                            "numerator": {
                                "value": 0.25,
                                "unit": "MG",
                                "system": "http://unitsofmeasure.org",
                                "code": "mg"
                            },
                            "denominator": {
                                "value": 0.25,
                                "unit": "MG",
                                "system": "http://unitsofmeasure.org",
                                "code": "mg"
                            }
                        }
                    }
                ]
            },
            "search": {
                "mode": "include"
            }
        },
        {
            "link": [
                {
                    "relation": "self",
                    "url": "https://appmarket.epic.com/interconnect-amcurprd-oauth/api/FHIR/R4/Medication/eopwiHwLo3HBxoR68auv.zg0wcPozrC5nahTdAcyJpR9yCjYMmYoNshi1WJ4ZZzQx3"
                }
            ],
            "fullUrl": "https://appmarket.epic.com/interconnect-amcurprd-oauth/api/FHIR/R4/Medication/eopwiHwLo3HBxoR68auv.zg0wcPozrC5nahTdAcyJpR9yCjYMmYoNshi1WJ4ZZzQx3",
            "resource": {
                "resourceType": "Medication",
                "id": "eopwiHwLo3HBxoR68auv.zg0wcPozrC5nahTdAcyJpR9yCjYMmYoNshi1WJ4ZZzQx3",
                "code": {
                    "coding": [
                        {
                            "system": "urn:oid:2.16.840.1.113883.6.253",
                            "code": "67934"
                        },
                        {
                            "system": "urn:oid:2.16.840.1.113883.6.68",
                            "code": "27250050007520"
                        },
                        {
                            "system": "urn:oid:2.16.840.1.113883.6.162",
                            "code": "30356"
                        },
                        {
                            "system": "http://www.nlm.nih.gov/research/umls/rxnorm",
                            "code": "6809"
                        },
                        {
                            "system": "http://www.nlm.nih.gov/research/umls/rxnorm",
                            "code": "235743"
                        },
                        {
                            "system": "http://www.nlm.nih.gov/research/umls/rxnorm",
                            "code": "860975"
                        }
                    ],
                    "text": "metFORMIN (GLUCOPHAGE-XR) 24 hr tablet"
                },
                "form": {
                    "coding": [
                        {
                            "system": "urn:oid:1.2.840.114350.1.13.0.1.7.4.698288.310",
                            "code": "TB24",
                            "display": "tablet sustained-release 24 hour"
                        }
                    ],
                    "text": "tablet sustained-release 24 hour"
                },
                "ingredient": [
                    {
                        "itemCodeableConcept": {
                            "coding": [
                                {
                                    "system": "urn:oid:2.16.840.1.113883.6.253",
                                    "code": "67934"
                                },
                                {
                                    "system": "urn:oid:2.16.840.1.113883.6.68",
                                    "code": "27250050007520"
                                },
                                {
                                    "system": "urn:oid:2.16.840.1.113883.6.162",
                                    "code": "30356"
                                },
                                {
                                    "system": "http://www.nlm.nih.gov/research/umls/rxnorm",
                                    "code": "6809"
                                },
                                {
                                    "system": "http://www.nlm.nih.gov/research/umls/rxnorm",
                                    "code": "235743"
                                },
                                {
                                    "system": "http://www.nlm.nih.gov/research/umls/rxnorm",
                                    "code": "860975"
                                }
                            ],
                            "text": "metFORMIN (GLUCOPHAGE-XR) 24 hr tablet"
                        },
                        "strength": {
                            "numerator": {
                                "value": 500,
                                "unit": "MG",
                                "system": "http://unitsofmeasure.org",
                                "code": "mg"
                            },
                            "denominator": {
                                "value": 500,
                                "unit": "MG",
                                "system": "http://unitsofmeasure.org",
                                "code": "mg"
                            }
                        }
                    }
                ]
            },
            "search": {
                "mode": "include"
            }
        },
        {
            "link": [
                {
                    "relation": "self",
                    "url": "https://appmarket.epic.com/interconnect-amcurprd-oauth/api/FHIR/R4/Medication/eqqOnYRQjKbdm4rltcYFMpYKuG05ihys.KTF-mBcuhO9luPZGG5qisufOSBQ9RSgc3"
                }
            ],
            "fullUrl": "https://appmarket.epic.com/interconnect-amcurprd-oauth/api/FHIR/R4/Medication/eqqOnYRQjKbdm4rltcYFMpYKuG05ihys.KTF-mBcuhO9luPZGG5qisufOSBQ9RSgc3",
            "resource": {
                "resourceType": "Medication",
                "id": "eqqOnYRQjKbdm4rltcYFMpYKuG05ihys.KTF-mBcuhO9luPZGG5qisufOSBQ9RSgc3",
                "code": {
                    "coding": [
                        {
                            "system": "urn:oid:2.16.840.1.113883.6.253",
                            "code": "60331"
                        },
                        {
                            "system": "urn:oid:2.16.840.1.113883.6.68",
                            "code": "02100015112010"
                        },
                        {
                            "system": "http://www.nlm.nih.gov/research/umls/rxnorm",
                            "code": "2180"
                        },
                        {
                            "system": "http://www.nlm.nih.gov/research/umls/rxnorm",
                            "code": "203171"
                        },
                        {
                            "system": "http://www.nlm.nih.gov/research/umls/rxnorm",
                            "code": "1665050"
                        }
                    ],
                    "text": "ceFAZolin (ANCEF) IVPB 1 g in 50 mL (premix)"
                },
                "form": {
                    "coding": [
                        {
                            "system": "urn:oid:1.2.840.114350.1.13.0.1.7.4.698288.310",
                            "code": "SOLN",
                            "display": "solution"
                        }
                    ],
                    "text": "solution"
                },
                "ingredient": [
                    {
                        "itemCodeableConcept": {
                            "coding": [
                                {
                                    "system": "urn:oid:2.16.840.1.113883.6.253",
                                    "code": "60331"
                                },
                                {
                                    "system": "urn:oid:2.16.840.1.113883.6.68",
                                    "code": "02100015112010"
                                },
                                {
                                    "system": "http://www.nlm.nih.gov/research/umls/rxnorm",
                                    "code": "2180"
                                },
                                {
                                    "system": "http://www.nlm.nih.gov/research/umls/rxnorm",
                                    "code": "203171"
                                },
                                {
                                    "system": "http://www.nlm.nih.gov/research/umls/rxnorm",
                                    "code": "1665050"
                                }
                            ],
                            "text": "ceFAZolin (ANCEF) IVPB 1 g in 50 mL (premix)"
                        }
                    }
                ]
            },
            "search": {
                "mode": "include"
            }
        }
    ]
}